Study_word,test_word,Reference,old_new,trials.thisRepN,trials.thisTrialN,trials.thisN,trials.thisIndex,trials_2.thisRepN,trials_2.thisTrialN,trials_2.thisN,trials_2.thisIndex,thisRow.t,notes,trial.started,StudyText.started,Studyslider.started,trial.stopped,Studyslider.response,Studyslider.rt,Test_Phase.started,TestText.started,test_textbox.started,submit_text.started,testmouse.started,Test_Phase.stopped,test_textbox.text,testmouse.x,testmouse.y,testmouse.leftButton,testmouse.midButton,testmouse.rightButton,testmouse.time,testmouse.clicked_name,participant,session,date,expName,psychopyVersion,frameRate,expStart,
mouse,,,,0,0,0,8,,,,,0.11104670003987849,,0.024890299886465073,0.11104670003987849,0.11104670003987849,3.3022618999239057,1,3.231307700043544,,,,,,,,,,,,,,,0003,001,2024-11-07_13h50.14.510,Task 5,2024.1.5,None,2024-11-07 13h50.25.086929 +0530,
keys,,,,0,1,1,13,,,,,3.3271401999518275,,3.3027629000134766,3.3271401999518275,3.3271401999518275,4.419035000028089,1,1.089891399955377,,,,,,,,,,,,,,,0003,001,2024-11-07_13h50.14.510,Task 5,2024.1.5,None,2024-11-07 13h50.25.086929 +0530,
laptop,,,,0,2,2,5,,,,,4.443539199884981,,4.41949320002459,4.443539199884981,4.443539199884981,5.338731299852952,1,0.8782645000610501,,,,,,,,,,,,,,,0003,001,2024-11-07_13h50.14.510,Task 5,2024.1.5,None,2024-11-07 13h50.25.086929 +0530,
poster,,,,0,3,3,14,,,,,5.377527199918404,,5.339283099863678,5.377527199918404,5.377527199918404,6.170941599877551,1,0.7841131000313908,,,,,,,,,,,,,,,0003,001,2024-11-07_13h50.14.510,Task 5,2024.1.5,None,2024-11-07 13h50.25.086929 +0530,
case,,,,0,4,4,10,,,,,6.2102373000234365,,6.171473099850118,6.2102373000234365,6.2102373000234365,7.089131799992174,1,0.8718826998956501,,,,,,,,,,,,,,,0003,001,2024-11-07_13h50.14.510,Task 5,2024.1.5,None,2024-11-07 13h50.25.086929 +0530,
cruise,,,,0,5,5,11,,,,,7.11006739991717,,7.08964669983834,7.11006739991717,7.11006739991717,8.022787599824369,1,0.8889733999967575,,,,,,,,,,,,,,,0003,001,2024-11-07_13h50.14.510,Task 5,2024.1.5,None,2024-11-07 13h50.25.086929 +0530,
t-shirt,,,,0,6,6,7,,,,,8.060585599858314,,8.0233600998763,8.060585599858314,8.060585599858314,8.856192299863324,1,0.7857619000133127,,,,,,,,,,,,,,,0003,001,2024-11-07_13h50.14.510,Task 5,2024.1.5,None,2024-11-07 13h50.25.086929 +0530,
book,,,,0,7,7,0,,,,,8.894303399836645,,8.856737499823794,8.894303399836645,8.894303399836645,9.804937799926847,1,0.9034454000648111,,,,,,,,,,,,,,,0003,001,2024-11-07_13h50.14.510,Task 5,2024.1.5,None,2024-11-07 13h50.25.086929 +0530,
pastry,,,,0,8,8,9,,,,,9.844088699901477,,9.805536599829793,9.844088699901477,9.844088699901477,10.5882263998501,1,0.7311224997974932,,,,,,,,,,,,,,,0003,001,2024-11-07_13h50.14.510,Task 5,2024.1.5,None,2024-11-07 13h50.25.086929 +0530,
board,,,,0,9,9,4,,,,,10.626915500033647,,10.588777899974957,10.626915500033647,10.626915500033647,11.422319199889898,1,0.7882377000059932,,,,,,,,,,,,,,,0003,001,2024-11-07_13h50.14.510,Task 5,2024.1.5,None,2024-11-07 13h50.25.086929 +0530,
phone,,,,0,10,10,2,,,,,11.46084489999339,,11.422854899894446,11.46084489999339,11.46084489999339,12.18663419992663,1,0.7210635000374168,,,,,,,,,,,,,,,0003,001,2024-11-07_13h50.14.510,Task 5,2024.1.5,None,2024-11-07 13h50.25.086929 +0530,
police,,,,0,11,11,12,,,,,12.22744689998217,,12.187145199859515,12.22744689998217,12.22744689998217,12.905487600015476,1,0.67376449983567,,,,,,,,,,,,,,,0003,001,2024-11-07_13h50.14.510,Task 5,2024.1.5,None,2024-11-07 13h50.25.086929 +0530,
cushion,,,,0,12,12,1,,,,,12.943519399967045,,12.906028299825266,12.943519399967045,12.943519399967045,13.68655059998855,1,0.7380921998992562,,,,,,,,,,,,,,,0003,001,2024-11-07_13h50.14.510,Task 5,2024.1.5,None,2024-11-07 13h50.25.086929 +0530,
chart,,,,0,13,13,6,,,,,13.727173499995843,,13.68706059991382,13.727173499995843,13.727173499995843,14.470085999928415,1,0.7399642998352647,,,,,,,,,,,,,,,0003,001,2024-11-07_13h50.14.510,Task 5,2024.1.5,None,2024-11-07 13h50.25.086929 +0530,
marble,,,,0,14,14,3,,,,,14.510026199975982,,14.47061700001359,14.510026199975982,14.510026199975982,15.22182650002651,1,0.7038171000313014,,,,,,,,,,,,,,,0003,001,2024-11-07_13h50.14.510,Task 5,2024.1.5,None,2024-11-07 13h50.25.086929 +0530,
,v_s_,vase,new,,,,,0,0,0,17,15.276662399992347,,,,,,,,15.235043799970299,15.276662399992347,15.276662399992347,15.276662399992347,0.019100399920716882,25.152653699973598,vase,[-0.055],[-0.2966666666666667],[1],[0],[0],[9.910440499894321],['submit_text'],0003,001,2024-11-07_13h50.14.510,Task 5,2024.1.5,None,2024-11-07 13h50.25.086929 +0530,
,_a_bl_,marble,old,,,,,0,1,1,11,25.17676129983738,,,,,,,,25.154599000001326,25.17676129983738,25.17676129983738,25.17676129983738,0.00482369982637465,30.831830200040713,fable,[-0.055],[-0.2966666666666667],[1],[0],[0],[5.671807400183752],['submit_text'],0003,001,2024-11-07_13h50.14.510,Task 5,2024.1.5,None,2024-11-07 13h50.25.086929 +0530,
,Pas_tr_,pastry,old,,,,,0,2,2,4,30.859069800004363,,,,,,,,30.833022099919617,30.859069800004363,30.859069800004363,30.859069800004363,0.00773369986563921,34.86610360001214,pastry,[-0.055],[-0.2966666666666667],[1],[0],[0],[4.024665299803019],['submit_text'],0003,001,2024-11-07_13h50.14.510,Task 5,2024.1.5,None,2024-11-07 13h50.25.086929 +0530,
,p_nc_l,pencil,new,,,,,0,3,3,16,34.89233399997465,,,,,,,,34.86715990002267,34.89233399997465,34.89233399997465,34.89233399997465,0.004012299934402108,38.232481400016695,pencil,[-0.055],[-0.2966666666666667],[1],[0],[0],[3.360613400116563],['submit_text'],0003,001,2024-11-07_13h50.14.510,Task 5,2024.1.5,None,2024-11-07 13h50.25.086929 +0530,
,c_m_ra,camera,new,,,,,0,4,4,19,38.25868079997599,,,,,,,,38.233745199861005,38.25868079997599,38.25868079997599,38.25868079997599,0.004163000034168363,43.24932049983181,camera,[-0.055],[-0.2966666666666667],[1],[0],[0],[5.01083689997904],['submit_text'],0003,001,2024-11-07_13h50.14.510,Task 5,2024.1.5,None,2024-11-07 13h50.25.086929 +0530,
,_oo_,book,old,,,,,0,5,5,13,43.27516229986213,,,,,,,,43.250677899923176,43.27516229986213,43.27516229986213,43.27516229986213,0.003972999984398484,47.33399119996466,look,[-0.055],[-0.2966666666666667],[1],[0],[0],[4.078890200005844],['submit_text'],0003,001,2024-11-07_13h50.14.510,Task 5,2024.1.5,None,2024-11-07 13h50.25.086929 +0530,
,_ouse,mouse,old,,,,,0,6,6,3,47.35881610005163,,,,,,,,47.335142999887466,47.35881610005163,47.35881610005163,47.35881610005163,0.0038958999793976545,51.050702000036836,mouse,[-0.055],[-0.2966666666666667],[1],[0],[0],[3.7110092998482287],['submit_text'],0003,001,2024-11-07_13h50.14.510,Task 5,2024.1.5,None,2024-11-07 13h50.25.086929 +0530,
,bo_t_e,bottle,new,,,,,0,7,7,18,51.0754732999485,,,,,,,,51.0518670999445,51.0754732999485,51.0754732999485,51.0754732999485,0.0044055001344531775,54.099608100019395,bottle,[-0.055],[-0.2966666666666667],[1],[0],[0],[3.042631800053641],['submit_text'],0003,001,2024-11-07_13h50.14.510,Task 5,2024.1.5,None,2024-11-07 13h50.25.086929 +0530,
,c_s_,case,old,,,,,0,8,8,5,54.12478740001097,,,,,,,,54.10066609992646,54.12478740001097,54.12478740001097,54.12478740001097,0.0037279000971466303,63.73258770001121,"cost
",[0.023333333333333334],[-0.27666666666666667],[1],[0],[0],[9.627562599955127],['submit_text'],0003,001,2024-11-07_13h50.14.510,Task 5,2024.1.5,None,2024-11-07 13h50.25.086929 +0530,
,_ruis_,cruise,old,,,,,0,9,9,6,63.759593799943104,,,,,,,,63.733743199845776,63.759593799943104,63.759593799943104,63.759593799943104,0.004149700049310923,69.21308629983105,cruise,[0.02],[-0.30666666666666664],[1],[0],[0],[5.474648999981582],['submit_text'],0003,001,2024-11-07_13h50.14.510,Task 5,2024.1.5,None,2024-11-07 13h50.25.086929 +0530,
,_ho_e,phone,old,,,,,0,10,10,12,69.24035430001095,,,,,,,,69.21398839983158,69.24035430001095,69.24035430001095,69.24035430001095,0.002509899903088808,73.31419449998066,phone,[0.02],[-0.30666666666666664],[1],[0],[0],[4.096867399988696],['submit_text'],0003,001,2024-11-07_13h50.14.510,Task 5,2024.1.5,None,2024-11-07 13h50.25.086929 +0530,
,t_hi_t,thsirt,old,,,,,0,11,11,2,73.34045779984444,,,,,,,,73.31530549982563,73.34045779984444,73.34045779984444,73.34045779984444,0.004295699996873736,80.13016059994698,tshirt,[0.02],[-0.30666666666666664],[1],[0],[0],[6.809784300159663],['submit_text'],0003,001,2024-11-07_13h50.14.510,Task 5,2024.1.5,None,2024-11-07 13h50.25.086929 +0530,
,c_s_io,cushion,old,,,,,0,12,12,14,80.15672630001791,,,,,,,,80.1313252998516,80.15672630001791,80.15672630001791,80.15672630001791,0.005880499957129359,89.69598439987749,casio,[0.02],[-0.30666666666666664],[1],[0],[0],[9.558301999932155],['submit_text'],0003,001,2024-11-07_13h50.14.510,Task 5,2024.1.5,None,2024-11-07 13h50.25.086929 +0530,
,_ha_t,chart,old,,,,,0,13,13,1,89.72341810003854,,,,,,,,89.69692300003953,89.72341810003854,89.72341810003854,89.72341810003854,0.003674000035971403,95.59546409989707,chart,[0.02],[-0.30666666666666664],[1],[0],[0],[5.894093400100246],['submit_text'],0003,001,2024-11-07_13h50.14.510,Task 5,2024.1.5,None,2024-11-07 13h50.25.086929 +0530,
,P_li_e,police,old,,,,,0,14,14,7,95.62268240004778,,,,,,,,95.59661889984272,95.62268240004778,95.62268240004778,95.62268240004778,0.004398399963974953,98.74692189996131,police,[0.02],[-0.30666666666666664],[1],[0],[0],[3.145222800085321],['submit_text'],0003,001,2024-11-07_13h50.14.510,Task 5,2024.1.5,None,2024-11-07 13h50.25.086929 +0530,
,l_pt_p,laptop,old,,,,,0,15,15,0,98.77242829999886,,,,,,,,98.7478906000033,98.77242829999886,98.77242829999886,98.77242829999886,0.003847799962386489,101.646751599852,laptop,[0.02],[-0.30666666666666664],[1],[0],[0],[2.894340500002727],['submit_text'],0003,001,2024-11-07_13h50.14.510,Task 5,2024.1.5,None,2024-11-07 13h50.25.086929 +0530,
,ta_l_,table,new,,,,,0,16,16,15,101.67234389996156,,,,,,,,101.6478877000045,101.67234389996156,101.67234389996156,101.67234389996156,0.00395729998126626,105.09755910001695,table,[0.02],[-0.30666666666666664],[1],[0],[0],[3.4449083998333663],['submit_text'],0003,001,2024-11-07_13h50.14.510,Task 5,2024.1.5,None,2024-11-07 13h50.25.086929 +0530,
,K_y_,keys,old,,,,,0,17,17,8,105.1224550998304,,,,,,,,105.09912190004252,105.1224550998304,105.1224550998304,105.1224550998304,0.006616699974983931,108.67816190002486,keys,[0.02],[-0.30666666666666664],[1],[0],[0],[3.571759199956432],['submit_text'],0003,001,2024-11-07_13h50.14.510,Task 5,2024.1.5,None,2024-11-07 13h50.25.086929 +0530,
,p_st_r,poster,old,,,,,0,18,18,9,108.70550399995409,,,,,,,,108.67921400000341,108.70550399995409,108.70550399995409,108.70550399995409,0.0040998999029397964,112.02875859988853,pastry,[0.02],[-0.30666666666666664],[1],[0],[0],[3.3447386000771075],['submit_text'],0003,001,2024-11-07_13h50.14.510,Task 5,2024.1.5,None,2024-11-07 13h50.25.086929 +0530,
,_o_rd,board,old,,,,,0,19,19,10,112.05514219985344,,,,,,,,112.02991339983419,112.05514219985344,112.05514219985344,112.05514219985344,0.004490799969062209,121.12876700004563,chord,[0.02],[-0.30666666666666664],[1],[0],[0],[9.093560700071976],['submit_text'],0003,001,2024-11-07_13h50.14.510,Task 5,2024.1.5,None,2024-11-07 13h50.25.086929 +0530,
