pos,corr_resp,trials.thisRepN,trials.thisTrialN,trials.thisN,trials.thisIndex,trials_2.thisRepN,trials_2.thisTrialN,trials_2.thisN,trials_2.thisIndex,thisRow.t,notes,trial.started,Fixation.started,line1.started,line2.started,line3.started,line4.started,Fixation.stopped,probe.started,key_resp.started,trial.stopped,key_resp.keys,key_resp.corr,key_resp.rt,key_resp.duration,participant,session,date,expName,psychopyVersion,frameRate,expStart,
-50,x,0,0,0,0,,,,,0.03849529998842627,,0.020015399990370497,0.03849529998842627,1.0222905999980867,1.0222905999980867,1.0222905999980867,1.0222905999980867,1.0401578999881167,2.0059810999955516,2.0059810999955516,2.4664529000001494,x,1,0.42853760000434704,None,549741,001,2024-10-17_13h07.06.328,Task 4,2024.1.5,None,2024-10-17 13h07.11.929106 +0530,
150,v,0,1,1,1,,,,,2.488740400003735,,2.4716516999760643,2.488740400003735,3.4888382999924943,3.4888382999924943,3.4888382999924943,3.4888382999924943,3.5063201999873854,4.472990499984007,4.472990499984007,5.329035599977942,v,1,0.8534631000075024,None,549741,001,2024-10-17_13h07.06.328,Task 4,2024.1.5,None,2024-10-17 13h07.11.929106 +0530,
50,c,0,2,2,2,,,,,5.340130500000669,,5.330556000000797,5.340130500000669,6.339741799980402,6.339741799980402,6.339741799980402,6.339741799980402,6.339741799980402,7.3390147000027355,7.3390147000027355,8.211956199986162,c,1,0.8702808000089135,None,549741,001,2024-10-17_13h07.06.328,Task 4,2024.1.5,None,2024-10-17 13h07.11.929106 +0530,
-150,z,0,3,3,3,,,,,8.222212199994829,,8.213183399988338,8.222212199994829,9.223306999978377,9.223306999978377,9.223306999978377,9.223306999978377,9.223306999978377,10.223182699992321,10.223182699992321,10.895459599996684,z,1,0.6612994999741204,None,549741,001,2024-10-17_13h07.06.328,Task 4,2024.1.5,None,2024-10-17 13h07.11.929106 +0530,
-50,x,1,0,4,0,,,,,10.906211099994835,,10.89706409999053,10.906211099994835,11.906022399984067,11.906022399984067,11.906022399984067,11.906022399984067,11.906022399984067,12.905597099976148,12.905597099976148,13.545163200004026,x,1,0.6058449000120163,None,549741,001,2024-10-17_13h07.06.328,Task 4,2024.1.5,None,2024-10-17 13h07.11.929106 +0530,
150,v,1,1,5,1,,,,,13.55635749999783,,13.546837100002449,13.55635749999783,14.555805999989389,14.555805999989389,14.555805999989389,14.555805999989389,14.555805999989389,15.555241800000658,15.555241800000658,16.377947300003143,v,1,0.8178620999970008,None,549741,001,2024-10-17_13h07.06.328,Task 4,2024.1.5,None,2024-10-17 13h07.11.929106 +0530,
50,c,1,2,6,2,,,,,16.38908709998941,,16.379567199997837,16.38908709998941,17.389131499978248,17.389131499978248,17.389131499978248,17.389131499978248,17.389131499978248,18.388420299976133,18.388420299976133,18.77683149999939,c,1,0.3792636999860406,None,549741,001,2024-10-17_13h07.06.328,Task 4,2024.1.5,None,2024-10-17 13h07.11.929106 +0530,
-150,z,1,3,7,3,,,,,18.78858819999732,,18.778510000003735,18.78858819999732,19.78928579998319,19.78928579998319,19.78928579998319,19.78928579998319,19.78928579998319,20.788073399977293,20.788073399977293,21.1794768999971,z,1,0.38461069998447783,None,549741,001,2024-10-17_13h07.06.328,Task 4,2024.1.5,None,2024-10-17 13h07.11.929106 +0530,
-50,x,2,0,8,0,,,,,21.188997199991718,,21.181435899983626,21.188997199991718,22.188930599979358,22.188930599979358,22.188930599979358,22.188930599979358,22.188930599979358,23.189020499994513,23.189020499994513,25.528635399998166,x,1,2.3329807000118308,None,549741,001,2024-10-17_13h07.06.328,Task 4,2024.1.5,None,2024-10-17 13h07.11.929106 +0530,
150,v,2,1,9,1,,,,,25.539008099993225,,25.53020999999717,25.539008099993225,26.538544199982425,26.538544199982425,26.538544199982425,26.538544199982425,26.538544199982425,27.538813899998786,27.538813899998786,28.310799300001236,v,1,0.7603445000131615,None,549741,001,2024-10-17_13h07.06.328,Task 4,2024.1.5,None,2024-10-17 13h07.11.929106 +0530,
50,c,2,2,10,2,,,,,28.3220350999909,,28.312520699982997,28.3220350999909,29.32227169998805,29.32227169998805,29.32227169998805,29.32227169998805,29.32227169998805,30.3215549000015,30.3215549000015,30.710444700001972,c,1,0.3775253999920096,None,549741,001,2024-10-17_13h07.06.328,Task 4,2024.1.5,None,2024-10-17 13h07.11.929106 +0530,
-150,z,2,3,11,3,,,,,30.722015499981353,,30.712527900002897,30.722015499981353,31.72194709998439,31.72194709998439,31.72194709998439,31.72194709998439,31.72194709998439,32.721544999978505,32.721544999978505,33.09461430000374,z,1,0.3558123999973759,None,549741,001,2024-10-17_13h07.06.328,Task 4,2024.1.5,None,2024-10-17 13h07.11.929106 +0530,
-50,x,3,0,12,0,,,,,33.10499359999085,,33.0961946999887,33.10499359999085,34.10521399998106,34.10521399998106,34.10521399998106,34.10521399998106,34.10521399998106,35.105163899977924,35.105163899977924,35.42808889999287,x,1,0.306432000012137,None,549741,001,2024-10-17_13h07.06.328,Task 4,2024.1.5,None,2024-10-17 13h07.11.929106 +0530,
150,v,3,1,13,1,,,,,35.43829150000238,,35.42969779999112,35.43829150000238,36.43818299999111,36.43818299999111,36.43818299999111,36.43818299999111,36.43818299999111,37.438376599980984,37.438376599980984,37.79417619999731,v,1,0.34190769999986514,None,549741,001,2024-10-17_13h07.06.328,Task 4,2024.1.5,None,2024-10-17 13h07.11.929106 +0530,
50,c,3,2,14,2,,,,,37.80493009998463,,37.795676899986574,37.80493009998463,38.805109099979745,38.805109099979745,38.805109099979745,38.805109099979745,38.805109099979745,39.80410189999384,39.80410189999384,40.45999299999676,c,1,0.6236011000000872,None,549741,001,2024-10-17_13h07.06.328,Task 4,2024.1.5,None,2024-10-17 13h07.11.929106 +0530,
-150,z,3,3,15,3,,,,,40.47167139998055,,40.4615793999983,40.47167139998055,41.47154209998553,41.47154209998553,41.47154209998553,41.47154209998553,41.47154209998553,42.47082789998967,42.47082789998967,43.127619299979415,z,1,0.6474028000084218,None,549741,001,2024-10-17_13h07.06.328,Task 4,2024.1.5,None,2024-10-17 13h07.11.929106 +0530,
-50,x,4,0,16,0,,,,,43.13763339997968,,43.12935429997742,43.13763339997968,44.13807129999623,44.13807129999623,44.13807129999623,44.13807129999623,44.13807129999623,45.13717329999781,45.13717329999781,46.12855939997826,x,1,0.9887355999962892,None,549741,001,2024-10-17_13h07.06.328,Task 4,2024.1.5,None,2024-10-17 13h07.11.929106 +0530,
150,v,4,1,17,1,,,,,46.13734239997575,,46.130142399983015,46.13734239997575,47.13765649998095,47.13765649998095,47.13765649998095,47.13765649998095,47.13765649998095,48.15428249997785,48.15428249997785,49.77737119997619,v,1,1.617810499999905,None,549741,001,2024-10-17_13h07.06.328,Task 4,2024.1.5,None,2024-10-17 13h07.11.929106 +0530,
50,c,4,2,18,2,,,,,49.78738549997797,,49.778976300003706,49.78738549997797,50.78784340000129,50.78784340000129,50.78784340000129,50.78784340000129,50.78784340000129,51.78728379998938,51.78728379998938,52.51045129998238,c,1,0.7210262999869883,None,549741,001,2024-10-17_13h07.06.328,Task 4,2024.1.5,None,2024-10-17 13h07.11.929106 +0530,
-150,z,4,3,19,3,,,,,52.52032670000335,,52.51206330000423,52.52032670000335,53.521084899985,53.521084899985,53.521084899985,53.521084899985,53.521084899985,54.5204667999933,54.5204667999933,55.17743749998044,z,1,0.6502381000027526,None,549741,001,2024-10-17_13h07.06.328,Task 4,2024.1.5,None,2024-10-17 13h07.11.929106 +0530,
-50,x,5,0,20,0,,,,,55.18748609998147,,55.17905099998461,55.18748609998147,56.18725970000378,56.18725970000378,56.18725970000378,56.18725970000378,56.18725970000378,57.18685149998055,57.18685149998055,58.07577749999473,x,1,0.860392700007651,None,549741,001,2024-10-17_13h07.06.328,Task 4,2024.1.5,None,2024-10-17 13h07.11.929106 +0530,
150,v,5,1,21,1,,,,,58.087186799995834,,58.07734269998036,58.087186799995834,59.08708060000208,59.08708060000208,59.08708060000208,59.08708060000208,59.08708060000208,60.086569599981885,60.086569599981885,60.842072200000985,v,1,0.722524999990128,None,549741,001,2024-10-17_13h07.06.328,Task 4,2024.1.5,None,2024-10-17 13h07.11.929106 +0530,
50,c,5,2,22,2,,,,,60.85367739998037,,60.84366939999745,60.85367739998037,61.853982200002065,61.853982200002065,61.853982200002065,61.853982200002065,61.853982200002065,62.85300659999484,62.85300659999484,63.543932000000495,c,1,0.6813235000008717,None,549741,001,2024-10-17_13h07.06.328,Task 4,2024.1.5,None,2024-10-17 13h07.11.929106 +0530,
-150,z,5,3,23,3,,,,,63.553396799979964,,63.545550899987575,63.553396799979964,64.55357699998422,64.55357699998422,64.55357699998422,64.55357699998422,64.55357699998422,65.55331839999417,65.55331839999417,66.37545269998373,z,1,0.8188696000142954,None,549741,001,2024-10-17_13h07.06.328,Task 4,2024.1.5,None,2024-10-17 13h07.11.929106 +0530,
-50,x,6,0,24,0,,,,,66.38652199998614,,66.3773225999903,66.38652199998614,67.38698939999449,67.38698939999449,67.38698939999449,67.38698939999449,67.38698939999449,68.38588049999089,68.38588049999089,69.81023059997824,x,1,1.4173220999946352,None,549741,001,2024-10-17_13h07.06.328,Task 4,2024.1.5,None,2024-10-17 13h07.11.929106 +0530,
150,v,6,1,25,1,,,,,69.81992459998582,,69.81181649997598,69.81992459998582,70.82014709999203,70.82014709999203,70.82014709999203,70.82014709999203,70.82014709999203,71.81940919999033,71.81940919999033,72.62641349999467,v,1,0.7995799999916926,None,549741,001,2024-10-17_13h07.06.328,Task 4,2024.1.5,None,2024-10-17 13h07.11.929106 +0530,
50,c,6,2,26,2,,,,,72.63702309998916,,72.62807429998065,72.63702309998916,73.6369815999933,73.6369815999933,73.6369815999933,73.6369815999933,73.6369815999933,74.63573359997827,74.63573359997827,75.3101522999932,c,1,0.6703549000085331,None,549741,001,2024-10-17_13h07.06.328,Task 4,2024.1.5,None,2024-10-17 13h07.11.929106 +0530,
-150,z,6,3,27,3,,,,,75.31973540000035,,75.31174169998849,75.31973540000035,76.31975589998183,76.31975589998183,76.31975589998183,76.31975589998183,76.31975589998183,77.33501009998145,77.33501009998145,78.09316619997844,z,1,0.7527937999984715,None,549741,001,2024-10-17_13h07.06.328,Task 4,2024.1.5,None,2024-10-17 13h07.11.929106 +0530,
-50,x,7,0,28,0,,,,,78.10254319998785,,78.0947623999964,78.10254319998785,79.10304799998994,79.10304799998994,79.10304799998994,79.10304799998994,79.10304799998994,80.10244839999359,80.10244839999359,81.40803599997889,x,1,1.2942637999949511,None,549741,001,2024-10-17_13h07.06.328,Task 4,2024.1.5,None,2024-10-17 13h07.11.929106 +0530,
150,v,7,1,29,1,,,,,81.41932970000198,,81.40963249999913,81.41932970000198,82.41922359997989,82.41922359997989,82.41922359997989,82.41922359997989,82.41922359997989,83.41935229999945,83.41935229999945,84.22582429999602,v,1,0.7941045999759808,None,549741,001,2024-10-17_13h07.06.328,Task 4,2024.1.5,None,2024-10-17 13h07.11.929106 +0530,
50,c,7,2,30,2,,,,,84.23591679998208,,84.22751489997609,84.23591679998208,85.23575429999619,85.23575429999619,85.23575429999619,85.23575429999619,85.23575429999619,86.25123629998416,86.25123629998416,86.70969989997684,c,1,0.447791699989466,None,549741,001,2024-10-17_13h07.06.328,Task 4,2024.1.5,None,2024-10-17 13h07.11.929106 +0530,
-150,z,7,3,31,3,,,,,86.71886890000314,,86.71132899998338,86.71886890000314,87.71953669999493,87.71953669999493,87.71953669999493,87.71953669999493,87.71953669999493,88.71870919998037,88.71870919998037,89.72538589997566,z,1,1.002632599993376,None,549741,001,2024-10-17_13h07.06.328,Task 4,2024.1.5,None,2024-10-17 13h07.11.929106 +0530,
-50,x,8,0,32,0,,,,,89.73559840000235,,89.72697139999946,89.73559840000235,90.73607099999208,90.73607099999208,90.73607099999208,90.73607099999208,90.73607099999208,91.73519579999265,91.73519579999265,92.35966389998794,x,1,0.6221588000189513,None,549741,001,2024-10-17_13h07.06.328,Task 4,2024.1.5,None,2024-10-17 13h07.11.929106 +0530,
150,v,8,1,33,1,,,,,92.36872699999367,,92.36126099998364,92.36872699999367,93.36896009999327,93.36896009999327,93.36896009999327,93.36896009999327,93.36896009999327,94.36844219997874,94.36844219997874,94.89063439998426,v,1,0.5043431000085548,None,549741,001,2024-10-17_13h07.06.328,Task 4,2024.1.5,None,2024-10-17 13h07.11.929106 +0530,
50,c,8,2,34,2,,,,,94.90138939997996,,94.89182039999287,94.90138939997996,95.9174116999784,95.9174116999784,95.9174116999784,95.9174116999784,95.9174116999784,96.90185529997689,96.90185529997689,97.50922039998113,c,1,0.6022575999959372,None,549741,001,2024-10-17_13h07.06.328,Task 4,2024.1.5,None,2024-10-17 13h07.11.929106 +0530,
-150,z,8,3,35,3,,,,,97.5188825999794,,97.51107879998744,97.5188825999794,98.51875139999902,98.51875139999902,98.51875139999902,98.51875139999902,98.51875139999902,99.51804709999124,99.51804709999124,100.25856489999569,z,1,0.7381034999853,None,549741,001,2024-10-17_13h07.06.328,Task 4,2024.1.5,None,2024-10-17 13h07.11.929106 +0530,
-50,x,9,0,36,0,,,,,100.26828930000192,,100.26015729998471,100.26828930000192,101.26837289999821,101.26837289999821,101.26837289999821,101.26837289999821,101.26837289999821,102.26810839999234,102.26810839999234,102.80751210000017,x,1,0.5329053000023123,None,549741,001,2024-10-17_13h07.06.328,Task 4,2024.1.5,None,2024-10-17 13h07.11.929106 +0530,
150,v,9,1,37,1,,,,,102.81796709998162,,102.80910429998767,102.81796709998162,103.81861119999667,103.81861119999667,103.81861119999667,103.81861119999667,103.81861119999667,104.81871239998145,104.81871239998145,105.52352139999857,v,1,0.6832098999875598,None,549741,001,2024-10-17_13h07.06.328,Task 4,2024.1.5,None,2024-10-17 13h07.11.929106 +0530,
50,c,9,2,38,2,,,,,105.53473319998011,,105.5251111999969,105.53473319998011,106.53512379998574,106.53512379998574,106.53512379998574,106.53512379998574,106.53512379998574,107.53406069998164,107.53406069998164,108.25778049998917,c,1,0.7139450999966357,None,549741,001,2024-10-17_13h07.06.328,Task 4,2024.1.5,None,2024-10-17 13h07.11.929106 +0530,
-150,z,9,3,39,3,,,,,108.26775329999509,,108.259387099999,108.26775329999509,109.2678515999869,109.2678515999869,109.2678515999869,109.2678515999869,109.2678515999869,110.26822599998559,110.26822599998559,110.83818679998512,z,1,0.5557100000150967,None,549741,001,2024-10-17_13h07.06.328,Task 4,2024.1.5,None,2024-10-17 13h07.11.929106 +0530,
-50,x,10,0,40,0,,,,,110.8509306999913,,110.8394113999966,110.8509306999913,111.85149329999695,111.85149329999695,111.85149329999695,111.85149329999695,111.85149329999695,112.85083169999416,112.85083169999416,113.30668759997934,x,1,0.42836250000982545,None,549741,001,2024-10-17_13h07.06.328,Task 4,2024.1.5,None,2024-10-17 13h07.11.929106 +0530,
150,v,10,1,41,1,,,,,113.31812389998231,,113.30841939998209,113.31812389998231,114.31781199999386,114.31781199999386,114.31781199999386,114.31781199999386,114.31781199999386,115.3174064999912,115.3174064999912,115.99081379998825,v,1,0.6628189999901224,None,549741,001,2024-10-17_13h07.06.328,Task 4,2024.1.5,None,2024-10-17 13h07.11.929106 +0530,
50,c,10,2,42,2,,,,,116.00079989997903,,115.99245829999563,116.00079989997903,117.00141209998401,117.00141209998401,117.00141209998401,117.00141209998401,117.00141209998401,118.00047479997738,118.00047479997738,118.3403127999918,c,1,0.32847079998464324,None,549741,001,2024-10-17_13h07.06.328,Task 4,2024.1.5,None,2024-10-17 13h07.11.929106 +0530,
-150,z,10,3,43,3,,,,,118.35103589997743,,118.34189849998802,118.35103589997743,119.35085590000381,119.35085590000381,119.35085590000381,119.35085590000381,119.35085590000381,120.34998159998213,120.34998159998213,120.64060230000177,z,1,0.279056400002446,None,549741,001,2024-10-17_13h07.06.328,Task 4,2024.1.5,None,2024-10-17 13h07.11.929106 +0530,
-50,x,11,0,44,0,,,,,120.65070229998673,,120.64222169999266,120.65070229998673,121.65071259997785,121.65071259997785,121.65071259997785,121.65071259997785,121.65071259997785,122.65091749999556,122.65091749999556,123.24147629999788,x,1,0.5876187999965623,None,549741,001,2024-10-17_13h07.06.328,Task 4,2024.1.5,None,2024-10-17 13h07.11.929106 +0530,
150,v,11,1,45,1,,,,,123.25049789997865,,123.2430927999958,123.25049789997865,124.25055830000201,124.25055830000201,124.25055830000201,124.25055830000201,124.25055830000201,125.25032169997576,125.25032169997576,125.79187009998714,v,1,0.5389147000096273,None,549741,001,2024-10-17_13h07.06.328,Task 4,2024.1.5,None,2024-10-17 13h07.11.929106 +0530,
50,c,11,2,46,2,,,,,125.81584009999642,,125.79384050000226,125.81584009999642,126.8161857999803,126.8161857999803,126.8161857999803,126.8161857999803,126.83383619997767,127.80060699998285,127.80060699998285,128.5245075999992,c,1,0.7148275999934413,None,549741,001,2024-10-17_13h07.06.328,Task 4,2024.1.5,None,2024-10-17 13h07.11.929106 +0530,
-150,z,11,3,47,3,,,,,128.53371659998083,,128.52610970000387,128.53371659998083,129.5342965000018,129.5342965000018,129.5342965000018,129.5342965000018,129.5342965000018,130.53341039997758,130.53341039997758,131.22464489997947,z,1,0.6888565999979619,None,549741,001,2024-10-17_13h07.06.328,Task 4,2024.1.5,None,2024-10-17 13h07.11.929106 +0530,
-50,x,12,0,48,0,,,,,131.23340569998254,,131.22631790000014,131.23340569998254,132.23347269999795,132.23347269999795,132.23347269999795,132.23347269999795,132.23347269999795,133.24882700000308,133.24882700000308,133.83949179999763,x,1,0.585544800007483,None,549741,001,2024-10-17_13h07.06.328,Task 4,2024.1.5,None,2024-10-17 13h07.11.929106 +0530,
150,v,12,1,49,1,,,,,133.8496302999847,,133.84077650000108,133.8496302999847,134.850372099987,134.850372099987,134.850372099987,134.850372099987,134.850372099987,135.84999249997782,135.84999249997782,136.40675870000268,v,1,0.5524311999906786,None,549741,001,2024-10-17_13h07.06.328,Task 4,2024.1.5,None,2024-10-17 13h07.11.929106 +0530,
50,c,12,2,50,2,,,,,136.4165265999909,,136.40842809999594,136.4165265999909,137.4167252999905,137.4167252999905,137.4167252999905,137.4167252999905,137.4167252999905,138.41766249999637,138.41766249999637,138.6387543999881,c,1,0.20451770001091063,None,549741,001,2024-10-17_13h07.06.328,Task 4,2024.1.5,None,2024-10-17 13h07.11.929106 +0530,
-150,z,12,3,51,3,,,,,138.64981039997656,,138.64043969998602,138.64981039997656,139.65004499998759,139.65004499998759,139.65004499998759,139.65004499998759,139.65004499998759,140.64927209998132,140.64927209998132,140.83994720000192,z,1,0.18512200002442114,None,549741,001,2024-10-17_13h07.06.328,Task 4,2024.1.5,None,2024-10-17 13h07.11.929106 +0530,
-50,x,13,0,52,0,,,,,140.84979739997652,,140.84150589999626,140.84979739997652,141.85012669998105,141.85012669998105,141.85012669998105,141.85012669998105,141.85012669998105,142.84958499998902,142.84958499998902,143.2727810999786,x,1,0.4141685999929905,None,549741,001,2024-10-17_13h07.06.328,Task 4,2024.1.5,None,2024-10-17 13h07.11.929106 +0530,
150,v,13,1,53,1,,,,,143.28251399999135,,143.2743802999903,143.28251399999135,144.2832620999834,144.2832620999834,144.2832620999834,144.2832620999834,144.2832620999834,145.28255599999102,145.28255599999102,145.55515169998398,v,1,0.25568739997106604,None,549741,001,2024-10-17_13h07.06.328,Task 4,2024.1.5,None,2024-10-17 13h07.11.929106 +0530,
50,c,13,2,54,2,,,,,145.56582689998322,,145.55671169998823,145.56582689998322,146.56589559998247,146.56589559998247,146.56589559998247,146.56589559998247,146.56589559998247,147.56607339999755,147.56607339999755,147.888644199993,c,1,0.3165346000168938,None,549741,001,2024-10-17_13h07.06.328,Task 4,2024.1.5,None,2024-10-17 13h07.11.929106 +0530,
-150,z,13,3,55,3,,,,,147.89920240000356,,147.89016569999512,147.89920240000356,148.90005239998573,148.90005239998573,148.90005239998573,148.90005239998573,148.90005239998573,149.8989753999922,149.8989753999922,150.27219979997608,z,1,0.3682268999982625,None,549741,001,2024-10-17_13h07.06.328,Task 4,2024.1.5,None,2024-10-17 13h07.11.929106 +0530,
-50,x,14,0,56,0,,,,,150.28240199998254,,150.27374760000384,150.28240199998254,151.2827223999775,151.2827223999775,151.2827223999775,151.2827223999775,151.2827223999775,152.28246950000175,152.28246950000175,152.8549137999944,x,1,0.5683807999885175,None,549741,001,2024-10-17_13h07.06.328,Task 4,2024.1.5,None,2024-10-17 13h07.11.929106 +0530,
150,v,14,1,57,1,,,,,152.86522229999537,,152.85666699998546,152.86522229999537,153.86576159999822,153.86576159999822,153.86576159999822,153.86576159999822,153.86576159999822,154.86559179998585,154.86559179998585,155.27158469997812,v,1,0.3901006000232883,None,549741,001,2024-10-17_13h07.06.328,Task 4,2024.1.5,None,2024-10-17 13h07.11.929106 +0530,
50,c,14,2,58,2,,,,,155.28242760000285,,155.273162700003,155.28242760000285,156.28284499997972,156.28284499997972,156.28284499997972,156.28284499997972,156.28284499997972,157.2815645999799,157.2815645999799,158.03788209997583,c,1,0.7495718999998644,None,549741,001,2024-10-17_13h07.06.328,Task 4,2024.1.5,None,2024-10-17 13h07.11.929106 +0530,
-150,z,14,3,59,3,,,,,158.0487368000031,,158.03952910000226,158.0487368000031,159.0489355000027,159.0489355000027,159.0489355000027,159.0489355000027,159.0489355000027,160.04842439998174,160.04842439998174,160.57324909997988,z,1,0.519096099975286,None,549741,001,2024-10-17_13h07.06.328,Task 4,2024.1.5,None,2024-10-17 13h07.11.929106 +0530,
-50,x,15,0,60,0,,,,,160.5823584999889,,160.57496509997873,160.5823584999889,161.58196479998878,161.58196479998878,161.58196479998878,161.58196479998878,161.58196479998878,162.5820545000024,162.5820545000024,163.2383929999778,x,1,0.6402503999997862,None,549741,001,2024-10-17_13h07.06.328,Task 4,2024.1.5,None,2024-10-17 13h07.11.929106 +0530,
150,v,15,1,61,1,,,,,163.24867649999214,,163.24002460000338,163.24867649999214,164.24875830000383,164.24875830000383,164.24875830000383,164.24875830000383,164.24875830000383,165.24795729998732,165.24795729998732,165.87195099997916,v,1,0.6157991999934893,None,549741,001,2024-10-17_13h07.06.328,Task 4,2024.1.5,None,2024-10-17 13h07.11.929106 +0530,
50,c,15,2,62,2,,,,,165.8817609999969,,165.8735968999972,165.8817609999969,166.8816000999941,166.8816000999941,166.8816000999941,166.8816000999941,166.8816000999941,167.88123999998788,167.88123999998788,168.90497869998217,c,1,1.010909900011029,None,549741,001,2024-10-17_13h07.06.328,Task 4,2024.1.5,None,2024-10-17 13h07.11.929106 +0530,
-150,z,15,3,63,3,,,,,168.91507249997812,,168.90653929999098,168.91507249997812,169.9152802999888,169.9152802999888,169.9152802999888,169.9152802999888,169.9152802999888,170.91449659998761,170.91449659998761,172.50437670000247,z,1,1.5639645000046585,None,549741,001,2024-10-17_13h07.06.328,Task 4,2024.1.5,None,2024-10-17 13h07.11.929106 +0530,
-50,x,16,0,64,0,,,,,172.51460939997924,,172.5060290999827,172.51460939997924,173.51487809998798,173.51487809998798,173.51487809998798,173.51487809998798,173.51487809998798,174.51462859997991,174.51462859997991,175.05375819999608,x,1,0.53390420001233,None,549741,001,2024-10-17_13h07.06.328,Task 4,2024.1.5,None,2024-10-17 13h07.11.929106 +0530,
150,v,16,1,65,1,,,,,175.06482759999926,,175.05536109997774,175.06482759999926,176.06570099998498,176.06570099998498,176.06570099998498,176.06570099998498,176.06570099998498,177.06422739999834,177.06422739999834,177.50452039999072,v,1,0.433898000017507,None,549741,001,2024-10-17_13h07.06.328,Task 4,2024.1.5,None,2024-10-17 13h07.11.929106 +0530,
50,c,16,2,66,2,,,,,177.5143642000039,,177.50612340000225,177.5143642000039,178.51481890000287,178.51481890000287,178.51481890000287,178.51481890000287,178.51481890000287,179.5140240000037,179.5140240000037,180.18891899997834,c,1,0.6658038999885321,None,549741,001,2024-10-17_13h07.06.328,Task 4,2024.1.5,None,2024-10-17 13h07.11.929106 +0530,
-150,z,16,3,67,3,,,,,180.19670089997817,,180.19021879998036,180.19670089997817,181.19800639999448,181.19800639999448,181.19800639999448,181.19800639999448,181.19800639999448,182.19740029997774,182.19740029997774,182.60461809998378,z,1,0.3767476000066381,None,549741,001,2024-10-17_13h07.06.328,Task 4,2024.1.5,None,2024-10-17 13h07.11.929106 +0530,
-50,x,17,0,68,0,,,,,182.6148436999938,,182.60626889998093,182.6148436999938,183.6147052999877,183.6147052999877,183.6147052999877,183.6147052999877,183.6147052999877,184.61387020000257,184.61387020000257,185.95758719998412,x,1,1.3396283999900334,None,549741,001,2024-10-17_13h07.06.328,Task 4,2024.1.5,None,2024-10-17 13h07.11.929106 +0530,
150,v,17,1,69,1,,,,,185.97960369999055,,185.96019139999407,185.97960369999055,186.97961759997997,186.97961759997997,186.97961759997997,186.97961759997997,186.99759959999938,187.96413449998363,187.96413449998363,188.5373072999937,v,1,0.5661755000182893,None,549741,001,2024-10-17_13h07.06.328,Task 4,2024.1.5,None,2024-10-17 13h07.11.929106 +0530,
50,c,17,2,70,2,,,,,188.54723579998245,,188.5390528999851,188.54723579998245,189.5480542999867,189.5480542999867,189.5480542999867,189.5480542999867,189.5480542999867,190.56272009998793,190.56272009998793,191.45183399997768,c,1,0.8795384999830276,None,549741,001,2024-10-17_13h07.06.328,Task 4,2024.1.5,None,2024-10-17 13h07.11.929106 +0530,
-150,z,17,3,71,3,,,,,191.46353629999794,,191.4529327999917,191.46353629999794,192.46405039998353,192.46405039998353,192.46405039998353,192.46405039998353,192.46405039998353,193.4636641999823,193.4636641999823,193.9719560999947,z,1,0.4983361999911722,None,549741,001,2024-10-17_13h07.06.328,Task 4,2024.1.5,None,2024-10-17 13h07.11.929106 +0530,
-50,x,18,0,72,0,,,,,193.9803111999936,,193.97354439998162,193.9803111999936,194.9804438999854,194.9804438999854,194.9804438999854,194.9804438999854,194.9804438999854,195.97981299998355,195.97981299998355,196.68715759998304,x,1,0.7032798000145704,None,549741,001,2024-10-17_13h07.06.328,Task 4,2024.1.5,None,2024-10-17 13h07.11.929106 +0530,
150,v,18,1,73,1,,,,,196.69721189999836,,196.68876219997765,196.69721189999836,197.69727819997934,197.69727819997934,197.69727819997934,197.69727819997934,197.69727819997934,198.69639609998558,198.69639609998558,199.3700494999939,v,1,0.667675100004999,None,549741,001,2024-10-17_13h07.06.328,Task 4,2024.1.5,None,2024-10-17 13h07.11.929106 +0530,
50,c,18,2,74,2,,,,,199.37991999997757,,199.37177509997855,199.37991999997757,200.3800008999824,200.3800008999824,200.3800008999824,200.3800008999824,200.3800008999824,201.37940769997658,201.37940769997658,202.15363879999495,c,1,0.767671599984169,None,549741,001,2024-10-17_13h07.06.328,Task 4,2024.1.5,None,2024-10-17 13h07.11.929106 +0530,
-150,z,18,3,75,3,,,,,202.16346829998656,,202.15526249998948,202.16346829998656,203.16357909998624,203.16357909998624,203.16357909998624,203.16357909998624,203.16357909998624,204.16289730000426,204.16289730000426,204.55235579999862,z,1,0.3728490000066813,None,549741,001,2024-10-17_13h07.06.328,Task 4,2024.1.5,None,2024-10-17 13h07.11.929106 +0530,
-50,x,19,0,76,0,,,,,204.56290579997585,,204.55391039999085,204.56290579997585,205.5634458999848,205.5634458999848,205.5634458999848,205.5634458999848,205.5634458999848,206.56241029998637,206.56241029998637,207.10377479999443,x,1,0.5383559000038076,None,549741,001,2024-10-17_13h07.06.328,Task 4,2024.1.5,None,2024-10-17 13h07.11.929106 +0530,
150,v,19,1,77,1,,,,,207.1129179999989,,207.10537109998404,207.1129179999989,208.11311639999622,208.11311639999622,208.11311639999622,208.11311639999622,208.11311639999622,209.11236040000222,209.11236040000222,209.5869468000019,v,1,0.4684181000047829,None,549741,001,2024-10-17_13h07.06.328,Task 4,2024.1.5,None,2024-10-17 13h07.11.929106 +0530,
50,c,19,2,78,2,,,,,209.59634170000209,,209.5884950000036,209.59634170000209,210.5965705999988,210.5965705999988,210.5965705999988,210.5965705999988,210.5965705999988,211.5960275999969,211.5960275999969,212.0195662000042,c,1,0.41988130001118407,None,549741,001,2024-10-17_13h07.06.328,Task 4,2024.1.5,None,2024-10-17 13h07.11.929106 +0530,
-150,z,19,3,79,3,,,,,212.02937209999072,,212.02117969997926,212.02937209999072,213.0301819999877,213.0301819999877,213.0301819999877,213.0301819999877,213.0301819999877,214.02917639998486,214.02917639998486,214.46974079997744,z,1,0.43097340001259,None,549741,001,2024-10-17_13h07.06.328,Task 4,2024.1.5,None,2024-10-17 13h07.11.929106 +0530,
-50,x,20,0,80,0,,,,,214.47924610000337,,214.47135449998314,214.47924610000337,215.4794666999951,215.4794666999951,215.4794666999951,215.4794666999951,215.4794666999951,216.49465219999547,216.49465219999547,217.10264850000385,x,1,0.5989630999974906,None,549741,001,2024-10-17_13h07.06.328,Task 4,2024.1.5,None,2024-10-17 13h07.11.929106 +0530,
150,v,20,1,81,1,,,,,217.1127676999895,,217.10449040000094,217.1127676999895,218.11277369997697,218.11277369997697,218.11277369997697,218.11277369997697,218.11277369997697,219.11216419999255,219.11216419999255,219.95266819998506,v,1,0.8353843999793753,None,549741,001,2024-10-17_13h07.06.328,Task 4,2024.1.5,None,2024-10-17 13h07.11.929106 +0530,
50,c,20,2,82,2,,,,,219.9623586999951,,219.95425749997958,219.9623586999951,220.96258910000324,220.96258910000324,220.96258910000324,220.96258910000324,220.96258910000324,221.9620820999844,221.9620820999844,222.36871959999553,c,1,0.4033967000141274,None,549741,001,2024-10-17_13h07.06.328,Task 4,2024.1.5,None,2024-10-17 13h07.11.929106 +0530,
-150,z,20,3,83,3,,,,,222.37845489999745,,222.36997410000185,222.37845489999745,223.37927360000322,223.37927360000322,223.37927360000322,223.37927360000322,223.37927360000322,224.37867149998783,224.37867149998783,224.90040799998678,z,1,0.49021049999282695,None,549741,001,2024-10-17_13h07.06.328,Task 4,2024.1.5,None,2024-10-17 13h07.11.929106 +0530,
-50,x,21,0,84,0,,,,,224.91235659999074,,224.90200549998553,224.91235659999074,225.91193959998782,225.91193959998782,225.91193959998782,225.91193959998782,225.91193959998782,226.91136070000357,226.91136070000357,227.59972080000443,x,1,0.6774638000060804,None,549741,001,2024-10-17_13h07.06.328,Task 4,2024.1.5,None,2024-10-17 13h07.11.929106 +0530,
150,v,21,1,85,1,,,,,227.61223329999484,,227.60091249999823,227.61223329999484,228.61237409999012,228.61237409999012,228.61237409999012,228.61237409999012,228.61237409999012,229.61235079998733,229.61235079998733,230.2680957999837,v,1,0.6432532999897376,None,549741,001,2024-10-17_13h07.06.328,Task 4,2024.1.5,None,2024-10-17 13h07.11.929106 +0530,
50,c,21,2,86,2,,,,,230.27849440000136,,230.26969339998323,230.27849440000136,231.27864879998378,231.27864879998378,231.27864879998378,231.27864879998378,231.27864879998378,232.2784453999775,232.2784453999775,233.01847029998316,c,1,0.7333072999899741,None,549741,001,2024-10-17_13h07.06.328,Task 4,2024.1.5,None,2024-10-17 13h07.11.929106 +0530,
-150,z,21,3,87,3,,,,,233.02834729998722,,233.02010359999258,233.02834729998722,234.02896159997908,234.02896159997908,234.02896159997908,234.02896159997908,234.02896159997908,235.027958199993,235.027958199993,235.38368810000247,z,1,0.32761689997278154,None,549741,001,2024-10-17_13h07.06.328,Task 4,2024.1.5,None,2024-10-17 13h07.11.929106 +0530,
-50,x,22,0,88,0,,,,,235.39543720000074,,235.38526979999733,235.39543720000074,236.3951707999804,236.3951707999804,236.3951707999804,236.3951707999804,236.3951707999804,237.3952367999882,237.3952367999882,237.88377849999233,x,1,0.485323500004597,None,549741,001,2024-10-17_13h07.06.328,Task 4,2024.1.5,None,2024-10-17 13h07.11.929106 +0530,
150,v,22,1,89,1,,,,,237.8949483000033,,237.88559809999424,237.8949483000033,238.89526039999328,238.89526039999328,238.89526039999328,238.89526039999328,238.89526039999328,239.89460050000343,239.89460050000343,240.5351107000024,v,1,0.6327521000057459,None,549741,001,2024-10-17_13h07.06.328,Task 4,2024.1.5,None,2024-10-17 13h07.11.929106 +0530,
50,c,22,2,90,2,,,,,240.54504389999784,,240.5367287999834,240.54504389999784,241.54523729998618,241.54523729998618,241.54523729998618,241.54523729998618,241.54523729998618,242.54479439998977,242.54479439998977,242.91905299999053,c,1,0.36573669998324476,None,549741,001,2024-10-17_13h07.06.328,Task 4,2024.1.5,None,2024-10-17 13h07.11.929106 +0530,
-150,z,22,3,91,3,,,,,242.92804709999473,,242.92060919999494,242.92804709999473,243.92816839998704,243.92816839998704,243.92816839998704,243.92816839998704,243.92816839998704,244.927417400002,244.927417400002,252.44952579998062,z,1,7.48965259999386,None,549741,001,2024-10-17_13h07.06.328,Task 4,2024.1.5,None,2024-10-17 13h07.11.929106 +0530,
-50,x,23,0,92,0,,,,,252.46119639999233,,252.4511244999885,252.46119639999233,253.46113630000036,253.46113630000036,253.46113630000036,253.46113630000036,253.46113630000036,254.4611661999952,254.4611661999952,255.33648410000023,x,1,0.864435900002718,None,549741,001,2024-10-17_13h07.06.328,Task 4,2024.1.5,None,2024-10-17 13h07.11.929106 +0530,
150,v,23,1,93,1,,,,,255.35949360000086,,255.33816659997683,255.35949360000086,256.35977179999463,256.35977179999463,256.35977179999463,256.35977179999463,256.37793200000306,257.34377439998207,257.34377439998207,257.6658282999997,v,1,0.3193518999905791,None,549741,001,2024-10-17_13h07.06.328,Task 4,2024.1.5,None,2024-10-17 13h07.11.929106 +0530,
50,c,23,2,94,2,,,,,257.6770750999858,,257.66731479999726,257.6770750999858,258.67779249997693,258.67779249997693,258.67779249997693,258.67779249997693,258.67779249997693,259.6926076999807,259.6926076999807,260.0658111999801,c,1,0.34027750001405366,None,549741,001,2024-10-17_13h07.06.328,Task 4,2024.1.5,None,2024-10-17 13h07.11.929106 +0530,
-150,z,23,3,95,3,,,,,260.07741469997563,,260.06749659997877,260.07741469997563,261.07750319998013,261.07750319998013,261.07750319998013,261.07750319998013,261.07750319998013,262.07683869998436,262.07683869998436,262.5506288000033,z,1,0.4716533999890089,None,549741,001,2024-10-17_13h07.06.328,Task 4,2024.1.5,None,2024-10-17 13h07.11.929106 +0530,
-50,x,24,0,96,0,,,,,262.5606207999808,,262.5523915999802,262.5606207999808,263.56063339998946,263.56063339998946,263.56063339998946,263.56063339998946,263.56063339998946,264.56043859999045,264.56043859999045,264.7493554999819,x,1,0.18621840002015233,None,549741,001,2024-10-17_13h07.06.328,Task 4,2024.1.5,None,2024-10-17 13h07.11.929106 +0530,
150,v,24,1,97,1,,,,,264.76066349999746,,264.7509502999892,264.76066349999746,265.7605760000006,265.7605760000006,265.7605760000006,265.7605760000006,265.7605760000006,266.75989099999424,266.75989099999424,267.06678520000423,v,1,0.2901002000144217,None,549741,001,2024-10-17_13h07.06.328,Task 4,2024.1.5,None,2024-10-17 13h07.11.929106 +0530,
50,c,24,2,98,2,,,,,267.077120300004,,267.0685989999911,267.077120300004,268.07687369998894,268.07687369998894,268.07687369998894,268.07687369998894,268.07687369998894,269.0761431999854,269.0761431999854,269.4665130999929,c,1,0.38807650000671856,None,549741,001,2024-10-17_13h07.06.328,Task 4,2024.1.5,None,2024-10-17 13h07.11.929106 +0530,
-150,z,24,3,99,3,,,,,269.4765037999896,,269.46835300000384,269.4765037999896,270.4762959999789,270.4762959999789,270.4762959999789,270.4762959999789,270.4762959999789,271.47679309998057,271.47679309998057,271.79907219999586,z,1,0.30181579999043606,None,549741,001,2024-10-17_13h07.06.328,Task 4,2024.1.5,None,2024-10-17 13h07.11.929106 +0530,
-50,x,25,0,100,0,,,,,271.81013639998855,,271.80071459998726,271.81013639998855,272.8103196999873,272.8103196999873,272.8103196999873,272.8103196999873,272.8103196999873,273.82531669997843,273.82531669997843,274.20020749999094,x,1,0.36756149999564514,None,549741,001,2024-10-17_13h07.06.328,Task 4,2024.1.5,None,2024-10-17 13h07.11.929106 +0530,
150,v,25,1,101,1,,,,,274.2102313999785,,274.20187449999503,274.2102313999785,275.2100652999943,275.2100652999943,275.2100652999943,275.2100652999943,275.2100652999943,276.20949599999585,276.20949599999585,276.5504275999847,v,1,0.3320806999981869,None,549741,001,2024-10-17_13h07.06.328,Task 4,2024.1.5,None,2024-10-17 13h07.11.929106 +0530,
50,c,25,2,102,2,,,,,276.56038969999645,,276.5520706999814,276.56038969999645,277.5600775999774,277.5600775999774,277.5600775999774,277.5600775999774,277.5600775999774,278.5595078000042,278.5595078000042,279.0164344999939,c,1,0.4485110999958124,None,549741,001,2024-10-17_13h07.06.328,Task 4,2024.1.5,None,2024-10-17 13h07.11.929106 +0530,
-150,z,25,3,103,3,,,,,279.02681939999457,,279.01831899999524,279.02681939999457,280.0265414000023,280.0265414000023,280.0265414000023,280.0265414000023,280.0265414000023,281.02594389999285,281.02594389999285,281.51587169998675,z,1,0.4755013999820221,None,549741,001,2024-10-17_13h07.06.328,Task 4,2024.1.5,None,2024-10-17 13h07.11.929106 +0530,
-50,x,26,0,104,0,,,,,281.52629009998054,,281.5175100999768,281.52629009998054,282.5262545000005,282.5262545000005,282.5262545000005,282.5262545000005,282.5262545000005,283.5259606000036,283.5259606000036,283.9326347000024,x,1,0.39049650001106784,None,549741,001,2024-10-17_13h07.06.328,Task 4,2024.1.5,None,2024-10-17 13h07.11.929106 +0530,
150,v,26,1,105,1,,,,,283.9431893999863,,283.93413179999334,283.9431893999863,284.94276549998904,284.94276549998904,284.94276549998904,284.94276549998904,284.94276549998904,285.9417585999763,285.9417585999763,286.2487497999973,v,1,0.29319749999558553,None,549741,001,2024-10-17_13h07.06.328,Task 4,2024.1.5,None,2024-10-17 13h07.11.929106 +0530,
50,c,26,2,106,2,,,,,286.2592608999985,,286.2502972999937,286.2592608999985,287.2594296000025,287.2594296000025,287.2594296000025,287.2594296000025,287.2594296000025,288.25873599998886,288.25873599998886,288.76424399999087,c,1,0.4908413999946788,None,549741,001,2024-10-17_13h07.06.328,Task 4,2024.1.5,None,2024-10-17 13h07.11.929106 +0530,
-150,z,26,3,107,3,,,,,288.7759137999965,,288.76583369998843,288.7759137999965,289.77582049998455,289.77582049998455,289.77582049998455,289.77582049998455,289.77582049998455,290.77557779999916,290.77557779999916,291.1155236999912,z,1,0.3284022999869194,None,549741,001,2024-10-17_13h07.06.328,Task 4,2024.1.5,None,2024-10-17 13h07.11.929106 +0530,
-50,x,27,0,108,0,,,,,291.1259857999976,,291.11737239998183,291.1259857999976,292.12578899998334,292.12578899998334,292.12578899998334,292.12578899998334,292.12578899998334,293.12675349999336,293.12675349999336,293.46550520000164,x,1,0.32217660002061166,None,549741,001,2024-10-17_13h07.06.328,Task 4,2024.1.5,None,2024-10-17 13h07.11.929106 +0530,
150,v,27,1,109,1,,,,,293.47559419999016,,293.4671013999905,293.47559419999016,294.4762025999953,294.4762025999953,294.4762025999953,294.4762025999953,294.4762025999953,295.4753560999816,295.4753560999816,295.84680099997786,v,1,0.35640109999803826,None,549741,001,2024-10-17_13h07.06.328,Task 4,2024.1.5,None,2024-10-17 13h07.11.929106 +0530,
50,c,27,2,110,2,,,,,295.85881779997726,,295.84819579997566,295.85881779997726,296.8586712999968,296.8586712999968,296.8586712999968,296.8586712999968,296.8586712999968,297.8738908999949,297.8738908999949,298.43188190000365,c,1,0.5395390999910887,None,549741,001,2024-10-17_13h07.06.328,Task 4,2024.1.5,None,2024-10-17 13h07.11.929106 +0530,
-150,z,27,3,111,3,,,,,298.4418196999759,,298.4335835999809,298.4418196999759,299.44093679997604,299.44093679997604,299.44093679997604,299.44093679997604,299.44093679997604,300.44193879998056,300.44193879998056,300.8644459999923,z,1,0.4200274999893736,None,549741,001,2024-10-17_13h07.06.328,Task 4,2024.1.5,None,2024-10-17 13h07.11.929106 +0530,
-50,x,28,0,112,0,,,,,300.87538899999345,,300.8658019999857,300.87538899999345,301.875297999999,301.875297999999,301.875297999999,301.875297999999,301.875297999999,302.8748214999796,302.8748214999796,303.0983164999925,x,1,0.2167161999968812,None,549741,001,2024-10-17_13h07.06.328,Task 4,2024.1.5,None,2024-10-17 13h07.11.929106 +0530,
150,v,28,1,113,1,,,,,303.10863909998443,,303.1000995999784,303.10863909998443,304.1090769000002,304.1090769000002,304.1090769000002,304.1090769000002,304.1090769000002,305.1078324999835,305.1078324999835,305.3474786999868,v,1,0.2273558999877423,None,549741,001,2024-10-17_13h07.06.328,Task 4,2024.1.5,None,2024-10-17 13h07.11.929106 +0530,
50,c,28,2,114,2,,,,,305.3585350999783,,305.3494240999862,305.3585350999783,306.35869679998723,306.35869679998723,306.35869679998723,306.35869679998723,306.35869679998723,307.3580921999819,307.3580921999819,307.54870869999286,c,1,0.18560040000011213,None,549741,001,2024-10-17_13h07.06.328,Task 4,2024.1.5,None,2024-10-17 13h07.11.929106 +0530,
-150,z,28,3,115,3,,,,,307.5585592999996,,307.55029289997765,307.5585592999996,308.55835889998707,308.55835889998707,308.55835889998707,308.55835889998707,308.55835889998707,309.55789349999395,309.55789349999395,309.88097050000215,z,1,0.29298470000503585,None,549741,001,2024-10-17_13h07.06.328,Task 4,2024.1.5,None,2024-10-17 13h07.11.929106 +0530,
-50,x,29,0,116,0,,,,,309.8917795000016,,309.88261519998196,309.8917795000016,310.8914603999874,310.8914603999874,310.8914603999874,310.8914603999874,310.8914603999874,311.8909083000035,311.8909083000035,312.1311080000014,x,1,0.22853430002578534,None,549741,001,2024-10-17_13h07.06.328,Task 4,2024.1.5,None,2024-10-17 13h07.11.929106 +0530,
150,v,29,1,117,1,,,,,312.1418396999943,,312.1326859999972,312.1418396999943,313.1416140999936,313.1416140999936,313.1416140999936,313.1416140999936,313.1416140999936,314.1410262999998,314.1410262999998,314.5637873999949,v,1,0.41328030001022853,None,549741,001,2024-10-17_13h07.06.328,Task 4,2024.1.5,None,2024-10-17 13h07.11.929106 +0530,
50,c,29,2,118,2,,,,,314.57480259999284,,314.56536939999205,314.57480259999284,315.5746882999956,315.5746882999956,315.5746882999956,315.5746882999956,315.5746882999956,316.5740153999941,316.5740153999941,316.89842699997826,c,1,0.30935739999404177,None,549741,001,2024-10-17_13h07.06.328,Task 4,2024.1.5,None,2024-10-17 13h07.11.929106 +0530,
-150,z,29,3,119,3,,,,,316.90791939999326,,316.9000074999931,316.90791939999326,317.9082657999825,317.9082657999825,317.9082657999825,317.9082657999825,317.9082657999825,318.9077399999951,318.9077399999951,319.2147997999855,z,1,0.3047077000082936,None,549741,001,2024-10-17_13h07.06.328,Task 4,2024.1.5,None,2024-10-17 13h07.11.929106 +0530,
-50,x,30,0,120,0,,,,,319.2244486999989,,319.2163055999845,319.2244486999989,320.22429379998357,320.22429379998357,320.22429379998357,320.22429379998357,320.22429379998357,321.22384550000424,321.22384550000424,321.53089749999344,x,1,0.3034192999766674,None,549741,001,2024-10-17_13h07.06.328,Task 4,2024.1.5,None,2024-10-17 13h07.11.929106 +0530,
150,v,30,1,121,1,,,,,321.5413733999885,,321.53250519998255,321.5413733999885,322.54103079999913,322.54103079999913,322.54103079999913,322.54103079999913,322.54103079999913,323.54077769999276,323.54077769999276,323.79686790000414,v,1,0.2442280999966897,None,549741,001,2024-10-17_13h07.06.328,Task 4,2024.1.5,None,2024-10-17 13h07.11.929106 +0530,
50,c,30,2,122,2,,,,,323.8075013999769,,323.79840420000255,323.8075013999769,324.80776959998184,324.80776959998184,324.80776959998184,324.80776959998184,324.80776959998184,325.8069318999769,325.8069318999769,326.1802263999998,c,1,0.36756399998557754,None,549741,001,2024-10-17_13h07.06.328,Task 4,2024.1.5,None,2024-10-17 13h07.11.929106 +0530,
-150,z,30,3,123,3,,,,,326.19051769998623,,326.18197939998936,326.19051769998623,327.19081000000006,327.19081000000006,327.19081000000006,327.19081000000006,327.19081000000006,328.1901381999778,328.1901381999778,328.446225599997,z,1,0.24849699999322183,None,549741,001,2024-10-17_13h07.06.328,Task 4,2024.1.5,None,2024-10-17 13h07.11.929106 +0530,
-50,x,31,0,124,0,,,,,328.45762879998074,,328.4478648999939,328.45762879998074,329.4572488999984,329.4572488999984,329.4572488999984,329.4572488999984,329.4572488999984,330.45694209999056,330.45694209999056,330.77969589998247,x,1,0.2950812999915797,None,549741,001,2024-10-17_13h07.06.328,Task 4,2024.1.5,None,2024-10-17 13h07.11.929106 +0530,
150,v,31,1,125,1,,,,,330.7909289999807,,330.7813230000029,330.7909289999807,331.7903640999866,331.7903640999866,331.7903640999866,331.7903640999866,331.7903640999866,332.8056232999952,332.8056232999952,333.27922480000416,v,1,0.446293599990895,None,549741,001,2024-10-17_13h07.06.328,Task 4,2024.1.5,None,2024-10-17 13h07.11.929106 +0530,
50,c,31,2,126,2,,,,,333.2904116999998,,333.2808245999913,333.2904116999998,334.29030989998137,334.29030989998137,334.29030989998137,334.29030989998137,334.29030989998137,335.29028230000404,335.29028230000404,335.863457200001,c,1,0.5567743999999948,None,549741,001,2024-10-17_13h07.06.328,Task 4,2024.1.5,None,2024-10-17 13h07.11.929106 +0530,
-150,z,31,3,127,3,,,,,335.87365449999925,,335.8651227999944,335.87365449999925,336.8737947999907,336.8737947999907,336.8737947999907,336.8737947999907,336.8737947999907,337.8729059000034,337.8729059000034,338.3804433000041,z,1,0.5045394000189845,None,549741,001,2024-10-17_13h07.06.328,Task 4,2024.1.5,None,2024-10-17 13h07.11.929106 +0530,
-50,x,32,0,128,0,,,,,338.39055159999407,,338.38205119999475,338.39055159999407,339.3902484999853,339.3902484999853,339.3902484999853,339.3902484999853,339.3902484999853,340.3899065000005,340.3899065000005,340.9627216999943,x,1,0.5624099000124261,None,549741,001,2024-10-17_13h07.06.328,Task 4,2024.1.5,None,2024-10-17 13h07.11.929106 +0530,
150,v,32,1,129,1,,,,,340.97332719998667,,340.9643073999905,340.97332719998667,341.9734429999953,341.9734429999953,341.9734429999953,341.9734429999953,341.9734429999953,342.9730695000035,342.9730695000035,343.2963469999959,v,1,0.3188973999931477,None,549741,001,2024-10-17_13h07.06.328,Task 4,2024.1.5,None,2024-10-17 13h07.11.929106 +0530,
50,c,32,2,130,2,,,,,343.3065782999911,,343.29793719999725,343.3065782999911,344.306514099997,344.306514099997,344.306514099997,344.306514099997,344.306514099997,345.3062884999963,345.3062884999963,345.6635943999863,c,1,0.35510730001260526,None,549741,001,2024-10-17_13h07.06.328,Task 4,2024.1.5,None,2024-10-17 13h07.11.929106 +0530,
-150,z,32,3,131,3,,,,,345.6731940000027,,345.665242099989,345.6731940000027,346.6886326999811,346.6886326999811,346.6886326999811,346.6886326999811,346.6886326999811,347.672316399985,347.672316399985,348.23120259999996,z,1,0.548895599989919,None,549741,001,2024-10-17_13h07.06.328,Task 4,2024.1.5,None,2024-10-17 13h07.11.929106 +0530,
-50,x,33,0,132,0,,,,,348.25505149998935,,348.232812000002,348.25505149998935,349.2549366999883,349.2549366999883,349.2549366999883,349.2549366999883,349.27272789998096,350.2392112999805,350.2392112999805,350.9297050999885,x,1,0.6834129999915604,None,549741,001,2024-10-17_13h07.06.328,Task 4,2024.1.5,None,2024-10-17 13h07.11.929106 +0530,
150,v,33,1,133,1,,,,,350.93971219999366,,350.9313016999804,350.93971219999366,351.9393408999895,351.9393408999895,351.9393408999895,351.9393408999895,351.9393408999895,352.93948819997604,352.93948819997604,353.3778239999956,v,1,0.42268369998782873,None,549741,001,2024-10-17_13h07.06.328,Task 4,2024.1.5,None,2024-10-17 13h07.11.929106 +0530,
50,c,33,2,134,2,,,,,353.3894008999923,,353.37906419998035,353.3894008999923,354.38931159998174,354.38931159998174,354.38931159998174,354.38931159998174,354.38931159998174,355.3891440999869,355.3891440999869,356.293986899982,c,1,0.9006816000037361,None,549741,001,2024-10-17_13h07.06.328,Task 4,2024.1.5,None,2024-10-17 13h07.11.929106 +0530,
-150,z,33,3,135,3,,,,,356.3054804999847,,356.2952245999768,356.3054804999847,357.30606039997656,357.30606039997656,357.30606039997656,357.30606039997656,357.30606039997656,358.3052292999928,358.3052292999928,358.679484399996,z,1,0.36461180000333115,None,549741,001,2024-10-17_13h07.06.328,Task 4,2024.1.5,None,2024-10-17 13h07.11.929106 +0530,
-50,x,34,0,136,0,,,,,358.6897255999793,,358.681102499977,358.6897255999793,359.68946639998467,359.68946639998467,359.68946639998467,359.68946639998467,359.68946639998467,360.6883663999906,360.6883663999906,361.59430739999516,x,1,0.8746352000162005,None,549741,001,2024-10-17_13h07.06.328,Task 4,2024.1.5,None,2024-10-17 13h07.11.929106 +0530,
150,v,34,1,137,1,,,,,361.6055978999939,,361.59588639999856,361.6055978999939,362.6058252999792,362.6058252999792,362.6058252999792,362.6058252999792,362.6058252999792,363.605418799998,363.605418799998,364.328932000004,v,1,0.7181320000090636,None,549741,001,2024-10-17_13h07.06.328,Task 4,2024.1.5,None,2024-10-17 13h07.11.929106 +0530,
50,c,34,2,138,2,,,,,364.33872929998324,,364.3305769999861,364.33872929998324,365.3385762999824,365.3385762999824,365.3385762999824,365.3385762999824,365.3385762999824,366.33867679999094,366.33867679999094,366.7945179999806,c,1,0.4256475000001956,None,549741,001,2024-10-17_13h07.06.328,Task 4,2024.1.5,None,2024-10-17 13h07.11.929106 +0530,
-150,z,34,3,139,3,,,,,366.8055575999897,,366.7961308999802,366.8055575999897,367.8052817999851,367.8052817999851,367.8052817999851,367.8052817999851,367.8052817999851,368.8215594999783,368.8215594999783,369.3286918999802,z,1,0.5018187999958172,None,549741,001,2024-10-17_13h07.06.328,Task 4,2024.1.5,None,2024-10-17 13h07.11.929106 +0530,
-50,x,35,0,140,0,,,,,369.33855389998644,,369.3302905999881,369.33855389998644,370.33861669999897,370.33861669999897,370.33861669999897,370.33861669999897,370.33861669999897,371.3535355999775,371.3535355999775,371.66200939999544,x,1,0.30088439999963157,None,549741,001,2024-10-17_13h07.06.328,Task 4,2024.1.5,None,2024-10-17 13h07.11.929106 +0530,
150,v,35,1,141,1,,,,,371.67179389999365,,371.6636290999886,371.67179389999365,372.6717976999935,372.6717976999935,372.6717976999935,372.6717976999935,372.6717976999935,373.67191139998613,373.67191139998613,374.67813779998687,v,1,0.9997225999832153,None,549741,001,2024-10-17_13h07.06.328,Task 4,2024.1.5,None,2024-10-17 13h07.11.929106 +0530,
50,c,35,2,142,2,,,,,374.68814459998976,,374.6797577999823,374.68814459998976,375.68838269999833,375.68838269999833,375.68838269999833,375.68838269999833,375.68838269999833,376.68794619999244,376.68794619999244,377.0113345999853,c,1,0.3124540999997407,None,549741,001,2024-10-17_13h07.06.328,Task 4,2024.1.5,None,2024-10-17 13h07.11.929106 +0530,
-150,z,35,3,143,3,,,,,377.0216553999926,,377.01297579999664,377.0216553999926,378.0217516999983,378.0217516999983,378.0217516999983,378.0217516999983,378.0217516999983,379.0213653999963,379.0213653999963,379.51094809998176,z,1,0.4793325000209734,None,549741,001,2024-10-17_13h07.06.328,Task 4,2024.1.5,None,2024-10-17 13h07.11.929106 +0530,
-50,x,36,0,144,0,,,,,379.5208625999803,,379.5125145999773,379.5208625999803,380.5214974999835,380.5214974999835,380.5214974999835,380.5214974999835,380.5214974999835,381.5208996000001,381.5208996000001,381.8104977000039,x,1,0.27884010001434945,None,549741,001,2024-10-17_13h07.06.328,Task 4,2024.1.5,None,2024-10-17 13h07.11.929106 +0530,
150,v,36,1,145,1,,,,,381.820960299985,,381.811936699989,381.820960299985,382.8216965000029,382.8216965000029,382.8216965000029,382.8216965000029,382.8216965000029,383.8208583999949,383.8208583999949,384.1619312999828,v,1,0.3333789999887813,None,549741,001,2024-10-17_13h07.06.328,Task 4,2024.1.5,None,2024-10-17 13h07.11.929106 +0530,
50,c,36,2,146,2,,,,,384.1709856999805,,384.1636337999953,384.1709856999805,385.1716155000031,385.1716155000031,385.1716155000031,385.1716155000031,385.1716155000031,386.1707361000008,386.1707361000008,386.74362669998663,c,1,0.5682602000015322,None,549741,001,2024-10-17_13h07.06.328,Task 4,2024.1.5,None,2024-10-17 13h07.11.929106 +0530,
-150,z,36,3,147,3,,,,,386.7548557999835,,386.74532309998176,386.7548557999835,387.75448459998006,387.75448459998006,387.75448459998006,387.75448459998006,387.75448459998006,388.753976899985,388.753976899985,389.0766567999963,z,1,0.2897047000005841,None,549741,001,2024-10-17_13h07.06.328,Task 4,2024.1.5,None,2024-10-17 13h07.11.929106 +0530,
-50,x,37,0,148,0,,,,,389.08731350000016,,389.07825369999046,389.08731350000016,390.0878085999866,390.0878085999866,390.0878085999866,390.0878085999866,390.0878085999866,391.0868552000029,391.0868552000029,391.3765752000036,x,1,0.2601093999983277,None,549741,001,2024-10-17_13h07.06.328,Task 4,2024.1.5,None,2024-10-17 13h07.11.929106 +0530,
150,v,37,1,149,1,,,,,391.3875678999757,,391.37824579997687,391.3875678999757,392.3864076999889,392.3864076999889,392.3864076999889,392.3864076999889,392.3864076999889,393.38724429998547,393.38724429998547,393.6764389000018,v,1,0.2839662999904249,None,549741,001,2024-10-17_13h07.06.328,Task 4,2024.1.5,None,2024-10-17 13h07.11.929106 +0530,
50,c,37,2,150,2,,,,,393.687707199977,,393.67813729998306,393.687707199977,394.6872689999873,394.6872689999873,394.6872689999873,394.6872689999873,394.6872689999873,395.6872430999938,395.6872430999938,396.0588818999822,c,1,0.34336649999022484,None,549741,001,2024-10-17_13h07.06.328,Task 4,2024.1.5,None,2024-10-17 13h07.11.929106 +0530,
-150,z,37,3,151,3,,,,,396.07063939998625,,396.06045979997725,396.07063939998625,397.070570699987,397.070570699987,397.070570699987,397.070570699987,397.070570699987,398.07016459997976,398.07016459997976,398.44346089998726,z,1,0.36538419997668825,None,549741,001,2024-10-17_13h07.06.328,Task 4,2024.1.5,None,2024-10-17 13h07.11.929106 +0530,
-50,x,38,0,152,0,,,,,398.4536017999926,,398.4450524999993,398.4536017999926,399.4540619000036,399.4540619000036,399.4540619000036,399.4540619000036,399.4540619000036,400.46885959999054,400.46885959999054,401.0434233999986,x,1,0.5683530000096653,None,549741,001,2024-10-17_13h07.06.328,Task 4,2024.1.5,None,2024-10-17 13h07.11.929106 +0530,
150,v,38,1,153,1,,,,,401.05380429999786,,401.0449288999953,401.05380429999786,402.05384049998247,402.05384049998247,402.05384049998247,402.05384049998247,402.05384049998247,403.0537700999994,403.0537700999994,403.4761847000045,v,1,0.4170104000077117,None,549741,001,2024-10-17_13h07.06.328,Task 4,2024.1.5,None,2024-10-17 13h07.11.929106 +0530,
50,c,38,2,154,2,,,,,403.48709169999347,,403.4776698999922,403.48709169999347,404.4870214999828,404.4870214999828,404.4870214999828,404.4870214999828,404.4870214999828,405.4866069999989,405.4866069999989,406.0104662999802,c,1,0.5192168999928981,None,549741,001,2024-10-17_13h07.06.328,Task 4,2024.1.5,None,2024-10-17 13h07.11.929106 +0530,
-150,z,38,3,155,3,,,,,406.0200915999885,,406.012064599985,406.0200915999885,407.0203673999931,407.0203673999931,407.0203673999931,407.0203673999931,407.0203673999931,408.0195128999767,408.0195128999767,408.5766783999861,z,1,0.5483370000147261,None,549741,001,2024-10-17_13h07.06.328,Task 4,2024.1.5,None,2024-10-17 13h07.11.929106 +0530,
-50,x,39,0,156,0,,,,,408.58683769998606,,408.57830369999283,408.58683769998606,409.58595569999306,409.58595569999306,409.58595569999306,409.58595569999306,409.58595569999306,410.58618699997896,410.58618699997896,411.05889580000076,x,1,0.4399666999815963,None,549741,001,2024-10-17_13h07.06.328,Task 4,2024.1.5,None,2024-10-17 13h07.11.929106 +0530,
150,v,39,1,157,1,,,,,411.07041200000094,,411.06059249999817,411.07041200000094,412.0700183000008,412.0700183000008,412.0700183000008,412.0700183000008,412.0700183000008,413.0719468999887,413.0719468999887,413.62480269998196,v,1,0.5453724999970291,None,549741,001,2024-10-17_13h07.06.328,Task 4,2024.1.5,None,2024-10-17 13h07.11.929106 +0530,
50,c,39,2,158,2,,,,,413.63701769997715,,413.6259414999804,413.63701769997715,414.6520371999941,414.6520371999941,414.6520371999941,414.6520371999941,414.6520371999941,415.65216529997997,415.65216529997997,415.9092837999924,c,1,0.2487478000111878,None,549741,001,2024-10-17_13h07.06.328,Task 4,2024.1.5,None,2024-10-17 13h07.11.929106 +0530,
-150,z,39,3,159,3,,,,,415.91918929998064,,415.9107302999764,415.91918929998064,416.93515989999287,416.93515989999287,416.93515989999287,416.93515989999287,416.93515989999287,417.9190401999804,417.9190401999804,418.1927786000015,z,1,0.2659165000077337,None,549741,001,2024-10-17_13h07.06.328,Task 4,2024.1.5,None,2024-10-17 13h07.11.929106 +0530,
-50,x,40,0,160,0,,,,,418.20327569998335,,418.1943880000035,418.20327569998335,419.2027363999805,419.2027363999805,419.2027363999805,419.2027363999805,419.2027363999805,420.20224519999465,420.20224519999465,420.54200849999324,x,1,0.3071005000092555,None,549741,001,2024-10-17_13h07.06.328,Task 4,2024.1.5,None,2024-10-17 13h07.11.929106 +0530,
150,v,40,1,161,1,,,,,420.5528315999836,,420.5436417000019,420.5528315999836,421.56777759999386,421.56777759999386,421.56777759999386,421.56777759999386,421.56777759999386,422.5519929000002,422.5519929000002,422.87632919999305,v,1,0.3159754000080284,None,549741,001,2024-10-17_13h07.06.328,Task 4,2024.1.5,None,2024-10-17 13h07.11.929106 +0530,
50,c,40,2,162,2,,,,,422.8858524999814,,422.87803110000095,422.8858524999814,423.88591599999927,423.88591599999927,423.88591599999927,423.88591599999927,423.88591599999927,424.8856330999988,424.8856330999988,425.3266306000005,c,1,0.427604299999075,None,549741,001,2024-10-17_13h07.06.328,Task 4,2024.1.5,None,2024-10-17 13h07.11.929106 +0530,
-150,z,40,3,163,3,,,,,425.3360976999975,,425.32822090000263,425.3360976999975,426.33567939998466,426.33567939998466,426.33567939998466,426.33567939998466,426.33567939998466,427.3513264999783,427.3513264999783,427.6418050999928,z,1,0.2859028000093531,None,549741,001,2024-10-17_13h07.06.328,Task 4,2024.1.5,None,2024-10-17 13h07.11.929106 +0530,
-50,x,41,0,164,0,,,,,427.6524635999813,,427.6435588999884,427.6524635999813,428.65257159998873,428.65257159998873,428.65257159998873,428.65257159998873,428.65257159998873,429.6520720999979,429.6520720999979,430.0768581999873,x,1,0.4151047000195831,None,549741,001,2024-10-17_13h07.06.328,Task 4,2024.1.5,None,2024-10-17 13h07.11.929106 +0530,
150,v,41,1,165,1,,,,,430.0854489999765,,430.0785418000014,430.0854489999765,431.08517939999,431.08517939999,431.08517939999,431.08517939999,431.08517939999,432.0850859999773,432.0850859999773,432.4728794999828,v,1,0.37807900001644157,None,549741,001,2024-10-17_13h07.06.328,Task 4,2024.1.5,None,2024-10-17 13h07.11.929106 +0530,
50,c,41,2,166,2,,,,,432.48516059998656,,432.4740126999968,432.48516059998656,433.4857218999823,433.4857218999823,433.4857218999823,433.4857218999823,433.4857218999823,434.48441029997775,434.48441029997775,434.87365470000077,c,1,0.37721679999958724,None,549741,001,2024-10-17_13h07.06.328,Task 4,2024.1.5,None,2024-10-17 13h07.11.929106 +0530,
-150,z,41,3,167,3,,,,,434.8851120999898,,434.87502239999594,434.8851120999898,435.8997440999956,435.8997440999956,435.8997440999956,435.8997440999956,435.8997440999956,436.88573519999045,436.88573519999045,437.17423029997735,z,1,0.2786872000142466,None,549741,001,2024-10-17_13h07.06.328,Task 4,2024.1.5,None,2024-10-17 13h07.11.929106 +0530,
-50,x,42,0,168,0,,,,,437.1849624000024,,437.1757654999965,437.1849624000024,438.18536819997826,438.18536819997826,438.18536819997826,438.18536819997826,438.18536819997826,439.1847196999879,439.1847196999879,439.50813909998396,x,1,0.3145164000161458,None,549741,001,2024-10-17_13h07.06.328,Task 4,2024.1.5,None,2024-10-17 13h07.11.929106 +0530,
150,v,42,1,169,1,,,,,439.5190582999785,,439.5096915999893,439.5190582999785,440.5184108999965,440.5184108999965,440.5184108999965,440.5184108999965,440.5184108999965,441.5182215999812,441.5182215999812,441.8759363999998,v,1,0.3554973999853246,None,549741,001,2024-10-17_13h07.06.328,Task 4,2024.1.5,None,2024-10-17 13h07.11.929106 +0530,
50,c,42,2,170,2,,,,,441.9006982999854,,441.8776731999824,441.9006982999854,442.9006549999758,442.9006549999758,442.9006549999758,442.9006549999758,442.91858389999834,443.88513049998437,443.88513049998437,444.2084942999936,c,1,0.3174524000205565,None,549741,001,2024-10-17_13h07.06.328,Task 4,2024.1.5,None,2024-10-17 13h07.11.929106 +0530,
-150,z,42,3,171,3,,,,,444.2183726999792,,444.21029930000077,444.2183726999792,445.21814699997776,445.21814699997776,445.21814699997776,445.21814699997776,445.21814699997776,446.21821999998065,446.21821999998065,446.67431159998523,z,1,0.43995229998836294,None,549741,001,2024-10-17_13h07.06.328,Task 4,2024.1.5,None,2024-10-17 13h07.11.929106 +0530,
-50,x,43,0,172,0,,,,,446.68523059997824,,446.6758324999828,446.68523059997824,447.6849520999822,447.6849520999822,447.6849520999822,447.6849520999822,447.6849520999822,448.68467539999983,448.68467539999983,449.32318039998063,x,1,0.6058886999962851,None,549741,001,2024-10-17_13h07.06.328,Task 4,2024.1.5,None,2024-10-17 13h07.11.929106 +0530,
150,v,43,1,173,1,,,,,449.33486109998194,,449.324962099985,449.33486109998194,450.34931019999203,450.34931019999203,450.34931019999203,450.34931019999203,450.34931019999203,451.3340184999979,451.3340184999979,453.508001899987,v,1,2.159739900002023,None,549741,001,2024-10-17_13h07.06.328,Task 4,2024.1.5,None,2024-10-17 13h07.11.929106 +0530,
50,c,43,2,174,2,,,,,453.51760409999406,,453.509593099996,453.51760409999406,454.51711669997894,454.51711669997894,454.51711669997894,454.51711669997894,454.51711669997894,455.5169157999917,455.5169157999917,455.9062791999895,c,1,0.3611891000182368,None,549741,001,2024-10-17_13h07.06.328,Task 4,2024.1.5,None,2024-10-17 13h07.11.929106 +0530,
-150,z,43,3,175,3,,,,,455.9177567999868,,455.9082160999824,455.9177567999868,456.91797300000326,456.91797300000326,456.91797300000326,456.91797300000326,456.91797300000326,457.91775079999934,457.91775079999934,458.22429260000354,z,1,0.3039017999835778,None,549741,001,2024-10-17_13h07.06.328,Task 4,2024.1.5,None,2024-10-17 13h07.11.929106 +0530,
-50,x,44,0,176,0,,,,,458.2341733999783,,458.2257937999966,458.2341733999783,459.23414409998804,459.23414409998804,459.23414409998804,459.23414409998804,459.23414409998804,460.23399089998566,460.23399089998566,460.3404335999803,x,1,0.08597610000288114,None,549741,001,2024-10-17_13h07.06.328,Task 4,2024.1.5,None,2024-10-17 13h07.11.929106 +0530,
150,v,44,1,177,1,,,,,460.3510450999893,,460.34207620000234,460.3510450999893,461.35074500000337,461.35074500000337,461.35074500000337,461.35074500000337,461.35074500000337,462.34984519999125,462.34984519999125,462.90645219999715,v,1,0.5257079999719281,None,549741,001,2024-10-17_13h07.06.328,Task 4,2024.1.5,None,2024-10-17 13h07.11.929106 +0530,
50,c,44,2,178,2,,,,,462.91763559999526,,462.9080701999774,462.91763559999526,463.9174672999943,463.9174672999943,463.9174672999943,463.9174672999943,463.9174672999943,464.9165651999938,464.9165651999938,465.35692419999395,c,1,0.433395300002303,None,549741,001,2024-10-17_13h07.06.328,Task 4,2024.1.5,None,2024-10-17 13h07.11.929106 +0530,
-150,z,44,3,179,3,,,,,465.3672942999983,,465.3585385999759,465.3672942999983,466.367224799993,466.367224799993,466.367224799993,466.367224799993,466.367224799993,467.36681300000055,467.36681300000055,468.70759669999825,z,1,1.3296218999894336,None,549741,001,2024-10-17_13h07.06.328,Task 4,2024.1.5,None,2024-10-17 13h07.11.929106 +0530,
-50,x,45,0,180,0,,,,,468.7172703999968,,468.7091952999763,468.7172703999968,469.71728109999094,469.71728109999094,469.71728109999094,469.71728109999094,469.71728109999094,470.71652560000075,470.71652560000075,471.2383914999955,x,1,0.49485280000953935,None,549741,001,2024-10-17_13h07.06.328,Task 4,2024.1.5,None,2024-10-17 13h07.11.929106 +0530,
150,v,45,1,181,1,,,,,471.2500141999917,,471.2400056000042,471.2500141999917,472.25045500000124,472.25045500000124,472.25045500000124,472.25045500000124,472.25045500000124,473.2499569999927,473.2499569999927,473.5895655999775,v,1,0.32462940001278184,None,549741,001,2024-10-17_13h07.06.328,Task 4,2024.1.5,None,2024-10-17 13h07.11.929106 +0530,
50,c,45,2,182,2,,,,,473.6001122999878,,473.5911960999947,473.6001122999878,474.6005640999938,474.6005640999938,474.6005640999938,474.6005640999938,474.6005640999938,475.61549929998,475.61549929998,476.1559253000014,c,1,0.511256300000241,None,549741,001,2024-10-17_13h07.06.328,Task 4,2024.1.5,None,2024-10-17 13h07.11.929106 +0530,
-150,z,45,3,183,3,,,,,476.16662350000115,,476.1576661999861,476.16662350000115,477.1819748999842,477.1819748999842,477.1819748999842,477.1819748999842,477.1819748999842,478.1659982999845,478.1659982999845,478.78823389997706,z,1,0.6201635999896098,None,549741,001,2024-10-17_13h07.06.328,Task 4,2024.1.5,None,2024-10-17 13h07.11.929106 +0530,
-50,x,46,0,184,0,,,,,478.799963700003,,478.78956149998703,478.799963700003,479.799955399998,479.799955399998,479.799955399998,479.799955399998,479.799955399998,480.79933249999885,480.79933249999885,481.37261049999506,x,1,0.5625873999961186,None,549741,001,2024-10-17_13h07.06.328,Task 4,2024.1.5,None,2024-10-17 13h07.11.929106 +0530,
150,v,46,1,185,1,,,,,481.3831758000015,,481.3742636999814,481.3831758000015,482.38401959999464,482.38401959999464,482.38401959999464,482.38401959999464,482.38401959999464,483.39829589999863,483.39829589999863,483.7055143000034,v,1,0.30289469999843277,None,549741,001,2024-10-17_13h07.06.328,Task 4,2024.1.5,None,2024-10-17 13h07.11.929106 +0530,
50,c,46,2,186,2,,,,,483.7167244000011,,483.7071435999824,483.7167244000011,484.71600369998487,484.71600369998487,484.71600369998487,484.71600369998487,484.71600369998487,485.71597530000145,485.71597530000145,486.10515560000204,c,1,0.3597514000139199,None,549741,001,2024-10-17_13h07.06.328,Task 4,2024.1.5,None,2024-10-17 13h07.11.929106 +0530,
-150,z,46,3,187,3,,,,,486.1164236999757,,486.10679329998675,486.1164236999757,487.1161766999867,487.1161766999867,487.1161766999867,487.1161766999867,487.1161766999867,488.11589859999367,488.11589859999367,488.7048198999837,z,1,0.5556863999809138,None,549741,001,2024-10-17_13h07.06.328,Task 4,2024.1.5,None,2024-10-17 13h07.11.929106 +0530,
-50,x,47,0,188,0,,,,,488.7162364999822,,488.706606199994,488.7162364999822,489.71703559998423,489.71703559998423,489.71703559998423,489.71703559998423,489.71703559998423,490.71573440000066,490.71573440000066,491.20514029997867,x,1,0.4707345000060741,None,549741,001,2024-10-17_13h07.06.328,Task 4,2024.1.5,None,2024-10-17 13h07.11.929106 +0530,
150,v,47,1,189,1,,,,,491.2157743999851,,491.20668549998663,491.2157743999851,492.2161206000019,492.2161206000019,492.2161206000019,492.2161206000019,492.2161206000019,493.2158669999917,493.2158669999917,493.83871059998637,v,1,0.6119086999970023,None,549741,001,2024-10-17_13h07.06.328,Task 4,2024.1.5,None,2024-10-17 13h07.11.929106 +0530,
50,c,47,2,190,2,,,,,493.8494223000016,,493.8402908999997,493.8494223000016,494.84930649999296,494.84930649999296,494.84930649999296,494.84930649999296,494.84930649999296,495.84912769999937,495.84912769999937,496.18913109999266,c,1,0.33783149998635054,None,549741,001,2024-10-17_13h07.06.328,Task 4,2024.1.5,None,2024-10-17 13h07.11.929106 +0530,
-150,z,47,3,191,3,,,,,496.19926049999776,,496.190634700004,496.19926049999776,497.19909109998844,497.19909109998844,497.19909109998844,497.19909109998844,497.19909109998844,498.1987089999893,498.1987089999893,498.5880968999991,z,1,0.3569736999925226,None,549741,001,2024-10-17_13h07.06.328,Task 4,2024.1.5,None,2024-10-17 13h07.11.929106 +0530,
-50,x,48,0,192,0,,,,,498.59891949998564,,498.5897585999919,498.59891949998564,499.59894249998615,499.59894249998615,499.59894249998615,499.59894249998615,499.59894249998615,500.5983640999766,500.5983640999766,500.97121419999166,x,1,0.3675779000041075,None,549741,001,2024-10-17_13h07.06.328,Task 4,2024.1.5,None,2024-10-17 13h07.11.929106 +0530,
150,v,48,1,193,1,,,,,500.98227579999366,,500.9728253999783,500.98227579999366,501.98195659997873,501.98195659997873,501.98195659997873,501.98195659997873,501.98195659997873,502.98152859997936,502.98152859997936,503.321546399995,v,1,0.3290500000002794,None,549741,001,2024-10-17_13h07.06.328,Task 4,2024.1.5,None,2024-10-17 13h07.11.929106 +0530,
50,c,48,2,194,2,,,,,503.3319139999803,,503.3231879999803,503.3319139999803,504.33239719999256,504.33239719999256,504.33239719999256,504.33239719999256,504.33239719999256,505.3314387999999,505.3314387999999,505.8055119999917,c,1,0.46844379999674857,None,549741,001,2024-10-17_13h07.06.328,Task 4,2024.1.5,None,2024-10-17 13h07.11.929106 +0530,
-150,z,48,3,195,3,,,,,505.81542139998055,,505.80709329998353,505.81542139998055,506.8160964999988,506.8160964999988,506.8160964999988,506.8160964999988,506.8160964999988,507.8148089000024,507.8148089000024,508.13782489998266,z,1,0.31406859998242,None,549741,001,2024-10-17_13h07.06.328,Task 4,2024.1.5,None,2024-10-17 13h07.11.929106 +0530,
-50,x,49,0,196,0,,,,,508.1483875999984,,508.1394169999985,508.1483875999984,509.1486376999819,509.1486376999819,509.1486376999819,509.1486376999819,509.1486376999819,510.1497512999922,510.1497512999922,510.43871479999507,x,1,0.28408429998671636,None,549741,001,2024-10-17_13h07.06.328,Task 4,2024.1.5,None,2024-10-17 13h07.11.929106 +0530,
150,v,49,1,197,1,,,,,510.4486158999789,,510.44033059998765,510.4486158999789,511.4484212999814,511.4484212999814,511.4484212999814,511.4484212999814,511.4484212999814,512.4476719999802,512.4476719999802,512.7706577999925,v,1,0.31903529999544844,None,549741,001,2024-10-17_13h07.06.328,Task 4,2024.1.5,None,2024-10-17 13h07.11.929106 +0530,
50,c,49,2,198,2,,,,,512.781754399999,,512.7722681000014,512.781754399999,513.7815304999822,513.7815304999822,513.7815304999822,513.7815304999822,513.7815304999822,514.7809300999797,514.7809300999797,515.1377333999844,c,1,0.34043719997862354,None,549741,001,2024-10-17_13h07.06.328,Task 4,2024.1.5,None,2024-10-17 13h07.11.929106 +0530,
-150,z,49,3,199,3,,,,,515.1478651999787,,515.1392073000025,515.1478651999787,516.1481781000039,516.1481781000039,516.1481781000039,516.1481781000039,516.1481781000039,517.1479993999819,517.1479993999819,519.8869761999813,z,1,2.7363220999832265,None,549741,001,2024-10-17_13h07.06.328,Task 4,2024.1.5,None,2024-10-17 13h07.11.929106 +0530,
-150,z,,,,,0,0,0,3,519.9131474999886,,519.9023451999819,519.9131474999886,520.9130578999757,520.9130578999757,520.9130578999757,520.9130578999757,520.9311523999786,521.8973996999848,521.8973996999848,523.2208182000031,z,1,1.3126357999863103,None,549741,001,2024-10-17_13h07.06.328,Task 4,2024.1.5,None,2024-10-17 13h07.11.929106 +0530,
50,c,,,,,0,1,1,2,523.2310587999818,,523.2229584000015,523.2310587999818,524.2311748999928,524.2311748999928,524.2311748999928,524.2311748999928,524.2311748999928,525.2299923999817,525.2299923999817,529.902617899992,v,0,4.645499400008703,None,549741,001,2024-10-17_13h07.06.328,Task 4,2024.1.5,None,2024-10-17 13h07.11.929106 +0530,
-150,z,,,,,0,2,2,3,529.9142766000004,,529.9042100999795,529.9142766000004,530.9144701999903,530.9144701999903,530.9144701999903,530.9144701999903,530.9144701999903,531.9140489999845,531.9140489999845,532.4538908999821,z,1,0.5223838999809232,None,549741,001,2024-10-17_13h07.06.328,Task 4,2024.1.5,None,2024-10-17 13h07.11.929106 +0530,
50,c,,,,,0,3,3,2,532.4640703999903,,532.455613899976,532.4640703999903,533.4642311999924,533.4642311999924,533.4642311999924,533.4642311999924,533.4642311999924,534.4632314000046,534.4632314000046,535.4352587999892,c,1,0.9615744999900926,None,549741,001,2024-10-17_13h07.06.328,Task 4,2024.1.5,None,2024-10-17 13h07.11.929106 +0530,
50,c,,,,,1,0,4,2,535.4466421999969,,535.4364378000028,535.4466421999969,536.4474307999772,536.4474307999772,536.4474307999772,536.4474307999772,536.4474307999772,537.4619428000005,537.4619428000005,539.4530464999843,c,1,1.9752644000109285,None,549741,001,2024-10-17_13h07.06.328,Task 4,2024.1.5,None,2024-10-17 13h07.11.929106 +0530,
150,v,,,,,1,1,5,1,539.46328549998,,539.4548675999977,539.46328549998,540.4639805999759,540.4639805999759,540.4639805999759,540.4639805999759,540.4639805999759,541.4630401000031,541.4630401000031,542.0865473999875,v,1,0.5921212999965064,None,549741,001,2024-10-17_13h07.06.328,Task 4,2024.1.5,None,2024-10-17 13h07.11.929106 +0530,
150,v,,,,,1,2,6,1,542.0966694999952,,542.0882621999772,542.0966694999952,543.0968832999934,543.0968832999934,543.0968832999934,543.0968832999934,543.0968832999934,544.0964489000035,544.0964489000035,544.5369636999967,v,1,0.43676569999661297,None,549741,001,2024-10-17_13h07.06.328,Task 4,2024.1.5,None,2024-10-17 13h07.11.929106 +0530,
-50,x,,,,,1,3,7,0,544.5465660999762,,544.5385677999875,544.5465660999762,545.5466941999912,545.5466941999912,545.5466941999912,545.5466941999912,545.5466941999912,546.5462882999855,546.5462882999855,547.02012619999,x,1,0.47154739999677986,None,549741,001,2024-10-17_13h07.06.328,Task 4,2024.1.5,None,2024-10-17 13h07.11.929106 +0530,
50,c,,,,,2,0,8,2,547.029996600002,,547.0218029999814,547.029996600002,548.03000899998,548.03000899998,548.03000899998,548.03000899998,548.03000899998,549.0294138999889,549.0294138999889,549.7027794999885,v,0,0.6675134999968577,None,549741,001,2024-10-17_13h07.06.328,Task 4,2024.1.5,None,2024-10-17 13h07.11.929106 +0530,
-150,z,,,,,2,1,9,3,549.7130966999975,,549.7044138999772,549.7130966999975,550.7129835999804,550.7129835999804,550.7129835999804,550.7129835999804,550.7129835999804,551.7125324999797,551.7125324999797,552.218984999985,z,1,0.5014810000138823,None,549741,001,2024-10-17_13h07.06.328,Task 4,2024.1.5,None,2024-10-17 13h07.11.929106 +0530,
-150,z,,,,,2,2,10,3,552.2294958999846,,552.2205466000014,552.2294958999846,553.2283732999931,553.2283732999931,553.2283732999931,553.2283732999931,553.245540599979,554.2290933999757,554.2290933999757,554.7835825999791,z,1,0.5403826000110712,None,549741,001,2024-10-17_13h07.06.328,Task 4,2024.1.5,None,2024-10-17 13h07.11.929106 +0530,
150,v,,,,,2,3,11,1,554.7959167999798,,554.7847693999938,554.7959167999798,555.7961931999889,555.7961931999889,555.7961931999889,555.7961931999889,555.7961931999889,556.7957480999758,556.7957480999758,557.4528968999803,v,1,0.650036299979547,None,549741,001,2024-10-17_13h07.06.328,Task 4,2024.1.5,None,2024-10-17 13h07.11.929106 +0530,
-150,z,,,,,3,0,12,3,557.4627622999833,,557.4545307999942,557.4627622999833,558.4630012999987,558.4630012999987,558.4630012999987,558.4630012999987,558.4630012999987,559.4621912000002,559.4621912000002,559.9690050999925,z,1,0.5045615000126418,None,549741,001,2024-10-17_13h07.06.328,Task 4,2024.1.5,None,2024-10-17 13h07.11.929106 +0530,
-150,z,,,,,3,1,13,3,559.9794327999989,,559.9706280999817,559.9794327999989,560.9796964999987,560.9796964999987,560.9796964999987,560.9796964999987,560.9796964999987,561.9961555999762,561.9961555999762,562.5003078999871,z,1,0.49022879998665303,None,549741,001,2024-10-17_13h07.06.328,Task 4,2024.1.5,None,2024-10-17 13h07.11.929106 +0530,
-150,z,,,,,3,2,14,3,562.5122208999819,,562.501823300001,562.5122208999819,563.5125506999902,563.5125506999902,563.5125506999902,563.5125506999902,563.5125506999902,564.5119708999991,564.5119708999991,565.0516906999983,z,1,0.5247057999949902,None,549741,001,2024-10-17_13h07.06.328,Task 4,2024.1.5,None,2024-10-17 13h07.11.929106 +0530,
-150,z,,,,,3,3,15,3,565.0624757999904,,565.0534038000042,565.0624757999904,566.0625598999904,566.0625598999904,566.0625598999904,566.0625598999904,566.0625598999904,567.0618947999901,567.0618947999901,567.5016385999916,z,1,0.434446899977047,None,549741,001,2024-10-17_13h07.06.328,Task 4,2024.1.5,None,2024-10-17 13h07.11.929106 +0530,
150,v,,,,,4,0,16,1,567.5124255999981,,567.5032232999802,567.5124255999981,568.5126231999893,568.5126231999893,568.5126231999893,568.5126231999893,568.5126231999893,569.511774499988,569.511774499988,570.3334115000034,v,1,0.8114423000079114,None,549741,001,2024-10-17_13h07.06.328,Task 4,2024.1.5,None,2024-10-17 13h07.11.929106 +0530,
-50,x,,,,,4,1,17,0,570.344860799989,,570.3347081999818,570.344860799989,571.3454614999937,571.3454614999937,571.3454614999937,571.3454614999937,571.3454614999937,572.3444068999961,572.3444068999961,573.3354104000027,x,1,0.9770853999943938,None,549741,001,2024-10-17_13h07.06.328,Task 4,2024.1.5,None,2024-10-17 13h07.11.929106 +0530,
-50,x,,,,,4,2,18,0,573.3454436000029,,573.3369988999912,573.3454436000029,574.3449971999798,574.3449971999798,574.3449971999798,574.3449971999798,574.3449971999798,575.344866200001,575.344866200001,576.168506499991,x,1,0.8131452999950852,None,549741,001,2024-10-17_13h07.06.328,Task 4,2024.1.5,None,2024-10-17 13h07.11.929106 +0530,
50,c,,,,,4,3,19,2,576.1786121999903,,576.1705663999892,576.1786121999903,577.1781742000021,577.1781742000021,577.1781742000021,577.1781742000021,577.1781742000021,578.1777508999803,578.1777508999803,579.1343583999842,c,1,0.9429172000091057,None,549741,001,2024-10-17_13h07.06.328,Task 4,2024.1.5,None,2024-10-17 13h07.11.929106 +0530,
-50,x,,,,,5,0,20,0,579.1448213999975,,579.1359693999984,579.1448213999975,580.1452685999975,580.1452685999975,580.1452685999975,580.1452685999975,580.1452685999975,581.1445657000004,581.1445657000004,581.7677733000019,x,1,0.6074516999942716,None,549741,001,2024-10-17_13h07.06.328,Task 4,2024.1.5,None,2024-10-17 13h07.11.929106 +0530,
-50,x,,,,,5,1,21,0,581.7778353999893,,581.7692143000022,581.7778353999893,582.7783641999995,582.7783641999995,582.7783641999995,582.7783641999995,582.7783641999995,583.7780185999873,583.7780185999873,584.3013849999988,z,0,0.513872999988962,None,549741,001,2024-10-17_13h07.06.328,Task 4,2024.1.5,None,2024-10-17 13h07.11.929106 +0530,
50,c,,,,,5,2,22,2,584.311828099977,,584.3031152999902,584.311828099977,585.3113611000008,585.3113611000008,585.3113611000008,585.3113611000008,585.3113611000008,586.3111388999969,586.3111388999969,588.0176015000034,c,1,1.6926827999996021,None,549741,001,2024-10-17_13h07.06.328,Task 4,2024.1.5,None,2024-10-17 13h07.11.929106 +0530,
50,c,,,,,5,3,23,2,588.0279825000034,,588.0192439999955,588.0279825000034,589.0285506999935,589.0285506999935,589.0285506999935,589.0285506999935,589.0285506999935,590.0267316999962,590.0267316999962,590.7840463999892,c,1,0.7543595000170171,None,549741,001,2024-10-17_13h07.06.328,Task 4,2024.1.5,None,2024-10-17 13h07.11.929106 +0530,
-50,x,,,,,6,0,24,0,590.7944786000007,,590.7855794999923,590.7944786000007,591.7945365999767,591.7945365999767,591.7945365999767,591.7945365999767,591.7945365999767,592.8109531999798,592.8109531999798,593.8184085999965,x,1,0.9980023999814875,None,549741,001,2024-10-17_13h07.06.328,Task 4,2024.1.5,None,2024-10-17 13h07.11.929106 +0530,
150,v,,,,,6,1,25,1,593.8283782999788,,593.8200255999982,593.8283782999788,594.8274716000014,594.8274716000014,594.8274716000014,594.8274716000014,594.8274716000014,595.8273857999884,595.8273857999884,596.400945899979,v,1,0.5677082000183873,None,549741,001,2024-10-17_13h07.06.328,Task 4,2024.1.5,None,2024-10-17 13h07.11.929106 +0530,
50,c,,,,,6,2,26,2,596.4107968999888,,596.4025210999826,596.4107968999888,597.4107883999823,597.4107883999823,597.4107883999823,597.4107883999823,597.4107883999823,598.4106414999987,598.4106414999987,599.1491765999817,c,1,0.7356845999893267,None,549741,001,2024-10-17_13h07.06.328,Task 4,2024.1.5,None,2024-10-17 13h07.11.929106 +0530,
150,v,,,,,6,3,27,1,599.1603828999796,,599.1505778999999,599.1603828999796,600.1602309999871,600.1602309999871,600.1602309999871,600.1602309999871,600.1602309999871,601.1607340999763,601.1607340999763,601.7963038999878,v,1,0.630889100022614,None,549741,001,2024-10-17_13h07.06.328,Task 4,2024.1.5,None,2024-10-17 13h07.11.929106 +0530,
50,c,,,,,7,0,28,2,601.8105789999827,,601.7970597999811,601.8105789999827,602.8106547999778,602.8106547999778,602.8106547999778,602.8106547999778,602.8106547999778,603.8101907999953,603.8101907999953,604.4502815000014,c,1,0.6331229000061285,None,549741,001,2024-10-17_13h07.06.328,Task 4,2024.1.5,None,2024-10-17 13h07.11.929106 +0530,
-150,z,,,,,7,1,29,3,604.4600980999821,,604.4519431999943,604.4600980999821,605.4603950000019,605.4603950000019,605.4603950000019,605.4603950000019,605.4603950000019,606.4599764999875,606.4599764999875,607.0171479999844,z,1,0.5496294000186026,None,549741,001,2024-10-17_13h07.06.328,Task 4,2024.1.5,None,2024-10-17 13h07.11.929106 +0530,
150,v,,,,,7,2,30,1,607.0269689999986,,607.0188049999997,607.0269689999986,608.0267987999832,608.0267987999832,608.0267987999832,608.0267987999832,608.0267987999832,609.0264890999824,609.0264890999824,609.7668358999945,v,1,0.7302779000019655,None,549741,001,2024-10-17_13h07.06.328,Task 4,2024.1.5,None,2024-10-17 13h07.11.929106 +0530,
50,c,,,,,7,3,31,2,609.7767716999806,,609.7684370999923,609.7767716999806,610.7766086999909,610.7766086999909,610.7766086999909,610.7766086999909,610.7766086999909,611.7935243999818,611.7935243999818,612.4664835000003,c,1,0.6580881999980193,None,549741,001,2024-10-17_13h07.06.328,Task 4,2024.1.5,None,2024-10-17 13h07.11.929106 +0530,
150,v,,,,,8,0,32,1,612.4765658999968,,612.4681009999767,612.4765658999968,613.492144399992,613.492144399992,613.492144399992,613.492144399992,613.492144399992,614.4763417999784,614.4763417999784,615.0988364999939,v,1,0.5907449000224005,None,549741,001,2024-10-17_13h07.06.328,Task 4,2024.1.5,None,2024-10-17 13h07.11.929106 +0530,
150,v,,,,,8,1,33,1,615.110104899999,,615.1004879999964,615.110104899999,616.109770799987,616.109770799987,616.109770799987,616.109770799987,616.109770799987,617.1098990000028,617.1098990000028,617.616140899976,v,1,0.5027219000039622,None,549741,001,2024-10-17_13h07.06.328,Task 4,2024.1.5,None,2024-10-17 13h07.11.929106 +0530,
50,c,,,,,8,2,34,2,617.6263934999879,,617.6178022999957,617.6263934999879,618.626732899982,618.626732899982,618.626732899982,618.626732899982,618.626732899982,619.6261387999984,619.6261387999984,620.3331244000001,c,1,0.6979112999979407,None,549741,001,2024-10-17_13h07.06.328,Task 4,2024.1.5,None,2024-10-17 13h07.11.929106 +0530,
150,v,,,,,8,3,35,1,620.3432080999773,,620.3347369999974,620.3432080999773,621.3431726999988,621.3431726999988,621.3431726999988,621.3431726999988,621.3431726999988,622.3583513999765,622.3583513999765,622.8659582999826,v,1,0.5003100000030827,None,549741,001,2024-10-17_13h07.06.328,Task 4,2024.1.5,None,2024-10-17 13h07.11.929106 +0530,
50,c,,,,,9,0,36,2,622.876056499983,,622.8678612999793,622.876056499983,623.8761685999925,623.8761685999925,623.8761685999925,623.8761685999925,623.8761685999925,624.8751750999945,624.8751750999945,625.598987299978,c,1,0.710827100003371,None,549741,001,2024-10-17_13h07.06.328,Task 4,2024.1.5,None,2024-10-17 13h07.11.929106 +0530,
-150,z,,,,,9,1,37,3,625.6091447999934,,625.6005191000004,625.6091447999934,626.6097431999806,626.6097431999806,626.6097431999806,626.6097431999806,626.6097431999806,627.6094181999797,627.6094181999797,629.0138372999791,z,1,1.3916885000071488,None,549741,001,2024-10-17_13h07.06.328,Task 4,2024.1.5,None,2024-10-17 13h07.11.929106 +0530,
-50,x,,,,,9,2,38,0,629.0260520000011,,629.0153139999893,629.0260520000011,630.0261967999977,630.0261967999977,630.0261967999977,630.0261967999977,630.0261967999977,631.0256125000014,631.0256125000014,632.4820309999923,x,1,1.4522653999738395,None,549741,001,2024-10-17_13h07.06.328,Task 4,2024.1.5,None,2024-10-17 13h07.11.929106 +0530,
150,v,,,,,9,3,39,1,632.4925430000003,,632.4836254999973,632.4925430000003,633.4920524999907,633.4920524999907,633.4920524999907,633.4920524999907,633.4920524999907,634.4916336000024,634.4916336000024,635.2646634999837,v,1,0.7568287999893073,None,549741,001,2024-10-17_13h07.06.328,Task 4,2024.1.5,None,2024-10-17 13h07.11.929106 +0530,
-50,x,,,,,10,0,40,0,635.2912168999901,,635.2662432999932,635.2912168999901,636.2910989999946,636.2910989999946,636.2910989999946,636.2910989999946,636.3091175000009,637.2755238999962,637.2755238999962,638.1656885999837,x,1,0.8810868000146002,None,549741,001,2024-10-17_13h07.06.328,Task 4,2024.1.5,None,2024-10-17 13h07.11.929106 +0530,
150,v,,,,,10,1,41,1,638.1754824999953,,638.1672806999995,638.1754824999953,639.1755573999835,639.1755573999835,639.1755573999835,639.1755573999835,639.1755573999835,640.175264199992,640.175264199992,640.7307008999924,v,1,0.5371084999933373,None,549741,001,2024-10-17_13h07.06.328,Task 4,2024.1.5,None,2024-10-17 13h07.11.929106 +0530,
150,v,,,,,10,2,42,1,640.7423054999963,,640.7323018999887,640.7423054999963,641.742178799992,641.742178799992,641.742178799992,641.742178799992,641.742178799992,642.741766399995,642.741766399995,643.2642177999951,v,1,0.49061400000937283,None,549741,001,2024-10-17_13h07.06.328,Task 4,2024.1.5,None,2024-10-17 13h07.11.929106 +0530,
50,c,,,,,10,3,43,2,643.2752504999808,,643.2658358000044,643.2752504999808,644.2753981999995,644.2753981999995,644.2753981999995,644.2753981999995,644.2753981999995,645.2743922999944,645.2743922999944,645.8147318999982,c,1,0.5376323999953456,None,549741,001,2024-10-17_13h07.06.328,Task 4,2024.1.5,None,2024-10-17 13h07.11.929106 +0530,
-150,z,,,,,11,0,44,3,645.8250946000044,,645.8165559999761,645.8250946000044,646.8252084999986,646.8252084999986,646.8252084999986,646.8252084999986,646.8252084999986,647.8250821999973,647.8250821999973,648.4813563999778,z,1,0.6540105000021867,None,549741,001,2024-10-17_13h07.06.328,Task 4,2024.1.5,None,2024-10-17 13h07.11.929106 +0530,
50,c,,,,,11,1,45,2,648.491876199987,,648.4830215999973,648.491876199987,649.4917448999768,649.4917448999768,649.4917448999768,649.4917448999768,649.4917448999768,650.4912177999795,650.4912177999795,651.2466433999944,c,1,0.7489946999994572,None,549741,001,2024-10-17_13h07.06.328,Task 4,2024.1.5,None,2024-10-17 13h07.11.929106 +0530,
-150,z,,,,,11,2,46,3,651.2583233999903,,651.2481682999933,651.2583233999903,652.2584366999799,652.2584366999799,652.2584366999799,652.2584366999799,652.2584366999799,653.2732393000042,653.2732393000042,653.813866499986,z,1,0.5179210000205785,None,549741,001,2024-10-17_13h07.06.328,Task 4,2024.1.5,None,2024-10-17 13h07.11.929106 +0530,
-150,z,,,,,11,3,47,3,653.8251366999757,,653.8154570999905,653.8251366999757,654.8245621999959,654.8245621999959,654.8245621999959,654.8245621999959,654.8245621999959,655.8238836999808,655.8238836999808,656.4471101999807,z,1,0.6071091000048909,None,549741,001,2024-10-17_13h07.06.328,Task 4,2024.1.5,None,2024-10-17 13h07.11.929106 +0530,
-150,z,,,,,12,0,48,3,656.4577246999834,,656.4485709999863,656.4577246999834,657.4578184999991,657.4578184999991,657.4578184999991,657.4578184999991,657.4578184999991,658.4578523999953,658.4578523999953,658.8794635999948,z,1,0.4128707000054419,None,549741,001,2024-10-17_13h07.06.328,Task 4,2024.1.5,None,2024-10-17 13h07.11.929106 +0530,
150,v,,,,,12,1,49,1,658.891035299981,,658.881034799997,658.891035299981,659.8913302999863,659.8913302999863,659.8913302999863,659.8913302999863,659.8913302999863,660.8906805999868,660.8906805999868,661.2474428999994,v,1,0.3504137999843806,None,549741,001,2024-10-17_13h07.06.328,Task 4,2024.1.5,None,2024-10-17 13h07.11.929106 +0530,
-50,x,,,,,12,2,50,0,661.2580208999861,,661.2490544999891,661.2580208999861,662.2575207999907,662.2575207999907,662.2575207999907,662.2575207999907,662.2575207999907,663.2569957999804,663.2569957999804,663.7474741000042,x,1,0.48765920000732876,None,549741,001,2024-10-17_13h07.06.328,Task 4,2024.1.5,None,2024-10-17 13h07.11.929106 +0530,
150,v,,,,,12,3,51,1,663.7578474000038,,663.7490433999919,663.7578474000038,664.7580121999781,664.7580121999781,664.7580121999781,664.7580121999781,664.7580121999781,665.7574559999921,665.7574559999921,666.1312352999812,v,1,0.36623149999650195,None,549741,001,2024-10-17_13h07.06.328,Task 4,2024.1.5,None,2024-10-17 13h07.11.929106 +0530,
50,c,,,,,13,0,52,2,666.1405323999934,,666.132858500001,666.1405323999934,667.1406704999972,667.1406704999972,667.1406704999972,667.1406704999972,667.1406704999972,668.1401918999909,668.1401918999909,668.5130264000036,c,1,0.3533836999849882,None,549741,001,2024-10-17_13h07.06.328,Task 4,2024.1.5,None,2024-10-17 13h07.11.929106 +0530,
-50,x,,,,,13,1,53,0,668.5242988999817,,668.5149002999824,668.5242988999817,669.5235917999817,669.5235917999817,669.5235917999817,669.5235917999817,669.5235917999817,670.5235461999837,670.5235461999837,670.9804215999902,c,0,0.454297200019937,None,549741,001,2024-10-17_13h07.06.328,Task 4,2024.1.5,None,2024-10-17 13h07.11.929106 +0530,
-150,z,,,,,13,2,54,3,670.990473199985,,670.9820575999911,670.990473199985,671.9903830999974,671.9903830999974,671.9903830999974,671.9903830999974,671.9903830999974,672.9895420999965,672.9895420999965,673.4959414000041,z,1,0.4988376000255812,None,549741,001,2024-10-17_13h07.06.328,Task 4,2024.1.5,None,2024-10-17 13h07.11.929106 +0530,
-150,z,,,,,13,3,55,3,673.5073399999819,,673.4977072000038,673.5073399999819,674.5069574999798,674.5069574999798,674.5069574999798,674.5069574999798,674.5069574999798,675.506617099978,675.506617099978,675.9959607999772,z,1,0.4617049000225961,None,549741,001,2024-10-17_13h07.06.328,Task 4,2024.1.5,None,2024-10-17 13h07.11.929106 +0530,
50,c,,,,,14,0,56,2,676.0068728999759,,675.9976236999792,676.0068728999759,677.0072420999932,677.0072420999932,677.0072420999932,677.0072420999932,677.0072420999932,678.0063921999827,678.0063921999827,679.0466192000022,c,1,1.034965500002727,None,549741,001,2024-10-17_13h07.06.328,Task 4,2024.1.5,None,2024-10-17 13h07.11.929106 +0530,
-150,z,,,,,14,1,57,3,679.05679469998,,679.0483151999942,679.05679469998,680.0572610999807,680.0572610999807,680.0572610999807,680.0572610999807,680.0572610999807,681.0562300999882,681.0562300999882,681.5467585999868,z,1,0.4855397999926936,None,549741,001,2024-10-17_13h07.06.328,Task 4,2024.1.5,None,2024-10-17 13h07.11.929106 +0530,
-150,z,,,,,14,2,58,3,681.5568243000016,,681.5483262999915,681.5568243000016,682.556652899977,682.556652899977,682.556652899977,682.556652899977,682.556652899977,683.5562220999855,683.5562220999855,684.0963115999766,z,1,0.5305029000155628,None,549741,001,2024-10-17_13h07.06.328,Task 4,2024.1.5,None,2024-10-17 13h07.11.929106 +0530,
-50,x,,,,,14,3,59,0,684.1063678999781,,684.0980075999978,684.1063678999781,685.1067536999763,685.1067536999763,685.1067536999763,685.1067536999763,685.1067536999763,686.1056205999921,686.1056205999921,686.6454956999805,z,0,0.5268590999767184,None,549741,001,2024-10-17_13h07.06.328,Task 4,2024.1.5,None,2024-10-17 13h07.11.929106 +0530,
-150,z,,,,,15,0,60,3,686.6565884999873,,686.646967299981,686.6565884999873,687.6563270999759,687.6563270999759,687.6563270999759,687.6563270999759,687.6563270999759,688.6561107999878,688.6561107999878,689.2454473999969,z,1,0.5567572999862023,None,549741,001,2024-10-17_13h07.06.328,Task 4,2024.1.5,None,2024-10-17 13h07.11.929106 +0530,
150,v,,,,,15,1,61,1,689.2563500999822,,689.2471092999913,689.2563500999822,690.2563358999905,690.2563358999905,690.2563358999905,690.2563358999905,690.2563358999905,691.2561829999904,691.2561829999904,691.8294863000046,v,1,0.5683431999932509,None,549741,001,2024-10-17_13h07.06.328,Task 4,2024.1.5,None,2024-10-17 13h07.11.929106 +0530,
50,c,,,,,15,2,62,2,691.8395046999794,,691.831044599996,691.8395046999794,692.8394890999771,692.8394890999771,692.8394890999771,692.8394890999771,692.8394890999771,693.8386896000011,693.8386896000011,694.4618413999851,c,1,0.6109168000111822,None,549741,001,2024-10-17_13h07.06.328,Task 4,2024.1.5,None,2024-10-17 13h07.11.929106 +0530,
-150,z,,,,,15,3,63,3,694.4729337999888,,694.463468300004,694.4729337999888,695.4727183999785,695.4727183999785,695.4727183999785,695.4727183999785,695.4727183999785,696.4723404999822,696.4723404999822,696.9472010000027,z,1,0.47226619999855757,None,549741,001,2024-10-17_13h07.06.328,Task 4,2024.1.5,None,2024-10-17 13h07.11.929106 +0530,
150,v,,,,,16,0,64,1,696.9560038999771,,696.9488163999922,696.9560038999771,697.955856799992,697.955856799992,697.955856799992,697.955856799992,697.955856799992,698.9554915999761,698.9554915999761,699.6278158999921,v,1,0.6451337999897078,None,549741,001,2024-10-17_13h07.06.328,Task 4,2024.1.5,None,2024-10-17 13h07.11.929106 +0530,
-50,x,,,,,16,1,65,0,699.6392514999898,,699.6293838999991,699.6392514999898,700.6395317999995,700.6395317999995,700.6395317999995,700.6395317999995,700.6395317999995,701.6393638000009,701.6393638000009,702.2287916999776,x,1,0.5754689000023063,None,549741,001,2024-10-17_13h07.06.328,Task 4,2024.1.5,None,2024-10-17 13h07.11.929106 +0530,
50,c,,,,,16,2,66,2,702.2388964999991,,702.2304016999842,702.2388964999991,703.2387567999831,703.2387567999831,703.2387567999831,703.2387567999831,703.2387567999831,704.2386933999951,704.2386933999951,704.9454064999882,c,1,0.6964364999730606,None,549741,001,2024-10-17_13h07.06.328,Task 4,2024.1.5,None,2024-10-17 13h07.11.929106 +0530,
-50,x,,,,,16,3,67,0,704.9556296999799,,704.9472079999978,704.9556296999799,705.9707093999896,705.9707093999896,705.9707093999896,705.9707093999896,705.9707093999896,706.9552017999813,706.9552017999813,707.5952741999936,x,1,0.6359921999974176,None,549741,001,2024-10-17_13h07.06.328,Task 4,2024.1.5,None,2024-10-17 13h07.11.929106 +0530,
-50,x,,,,,17,0,68,0,707.6054179999919,,707.5965918999864,707.6054179999919,708.6057036999846,708.6057036999846,708.6057036999846,708.6057036999846,708.6057036999846,709.6046452999872,709.6046452999872,710.3122993999859,x,1,0.7025053000252228,None,549741,001,2024-10-17_13h07.06.328,Task 4,2024.1.5,None,2024-10-17 13h07.11.929106 +0530,
-50,x,,,,,17,1,69,0,710.321578699979,,710.3139300000039,710.321578699979,711.3220709000016,711.3220709000016,711.3220709000016,711.3220709000016,711.3220709000016,712.3212036000041,712.3212036000041,713.0775368000031,x,1,0.7273760000243783,None,549741,001,2024-10-17_13h07.06.328,Task 4,2024.1.5,None,2024-10-17 13h07.11.929106 +0530,
150,v,,,,,17,2,70,1,713.0886814999976,,713.0791360999865,713.0886814999976,714.0886249000032,714.0886249000032,714.0886249000032,714.0886249000032,714.0886249000032,715.0878632999957,715.0878632999957,715.5785575000045,v,1,0.4858982000150718,None,549741,001,2024-10-17_13h07.06.328,Task 4,2024.1.5,None,2024-10-17 13h07.11.929106 +0530,
-50,x,,,,,17,3,71,0,715.5885348999873,,715.5801517999789,715.5885348999873,716.6035424000002,716.6035424000002,716.6035424000002,716.6035424000002,716.6035424000002,717.6034078999946,717.6034078999946,718.1289083999873,x,1,0.4908493999973871,None,549741,001,2024-10-17_13h07.06.328,Task 4,2024.1.5,None,2024-10-17 13h07.11.929106 +0530,
50,c,,,,,18,0,72,2,718.1381223999779,,718.1305207999831,718.1381223999779,719.1379822999879,719.1379822999879,719.1379822999879,719.1379822999879,719.1379822999879,720.1378301999939,720.1378301999939,720.610980700003,c,1,0.46224480000091717,None,549741,001,2024-10-17_13h07.06.328,Task 4,2024.1.5,None,2024-10-17 13h07.11.929106 +0530,
-50,x,,,,,18,1,73,0,720.6217694999941,,720.6125946999819,720.6217694999941,721.6212911999901,721.6212911999901,721.6212911999901,721.6212911999901,721.6212911999901,722.6208229999756,722.6208229999756,723.2271465999947,x,1,0.5898449000087567,None,549741,001,2024-10-17_13h07.06.328,Task 4,2024.1.5,None,2024-10-17 13h07.11.929106 +0530,
-150,z,,,,,18,2,74,3,723.2383845000004,,723.2287138999964,723.2383845000004,724.2379629999923,724.2379629999923,724.2379629999923,724.2379629999923,724.2379629999923,725.2376769999973,725.2376769999973,725.761293699994,z,1,0.5184936000150628,None,549741,001,2024-10-17_13h07.06.328,Task 4,2024.1.5,None,2024-10-17 13h07.11.929106 +0530,
-150,z,,,,,18,3,75,3,725.7709094999882,,725.7628057999827,725.7709094999882,726.7715895999863,726.7715895999863,726.7715895999863,726.7715895999863,726.7715895999863,727.7863558999961,727.7863558999961,728.4639284999867,z,1,0.665798799978802,None,549741,001,2024-10-17_13h07.06.328,Task 4,2024.1.5,None,2024-10-17 13h07.11.929106 +0530,
-50,x,,,,,19,0,76,0,728.4865524999914,,728.4668066999875,728.4865524999914,729.4716465999954,729.4716465999954,729.4716465999954,729.4716465999954,729.4875604999834,730.4703235999914,730.4703235999914,730.9443324999884,x,1,0.458941999997478,None,549741,001,2024-10-17_13h07.06.328,Task 4,2024.1.5,None,2024-10-17 13h07.11.929106 +0530,
-150,z,,,,,19,1,77,3,730.9542225999758,,730.9459887999983,730.9542225999758,731.9543697999907,731.9543697999907,731.9543697999907,731.9543697999907,731.9543697999907,732.9694114000013,732.9694114000013,733.4930113999872,z,1,0.5179628999903798,None,549741,001,2024-10-17_13h07.06.328,Task 4,2024.1.5,None,2024-10-17 13h07.11.929106 +0530,
-50,x,,,,,19,2,78,0,733.5043028999935,,733.49458649999,733.5043028999935,734.5041059999785,734.5041059999785,734.5041059999785,734.5041059999785,734.5041059999785,735.5041719999863,735.5041719999863,736.0263800999965,x,1,0.489907300012419,None,549741,001,2024-10-17_13h07.06.328,Task 4,2024.1.5,None,2024-10-17 13h07.11.929106 +0530,
50,c,,,,,19,3,79,2,736.0374534000002,,736.0279959999898,736.0374534000002,737.0372347999946,737.0372347999946,737.0372347999946,737.0372347999946,737.0372347999946,738.0372918999929,738.0372918999929,739.2932123999926,c,1,1.2444688999967184,None,549741,001,2024-10-17_13h07.06.328,Task 4,2024.1.5,None,2024-10-17 13h07.11.929106 +0530,
-50,x,,,,,20,0,80,0,739.3037483999797,,739.2947906999907,739.3037483999797,740.3041712999984,740.3041712999984,740.3041712999984,740.3041712999984,740.3041712999984,741.3191457999928,741.3191457999928,742.0763903999759,x,1,0.7450352000014391,None,549741,001,2024-10-17_13h07.06.328,Task 4,2024.1.5,None,2024-10-17 13h07.11.929106 +0530,
-150,z,,,,,20,1,81,3,742.0872151999793,,742.0780145000026,742.0872151999793,743.0867422999872,743.0867422999872,743.0867422999872,743.0867422999872,743.0867422999872,744.0869955999951,744.0869955999951,744.9436227999977,z,1,0.823820199992042,None,549741,001,2024-10-17_13h07.06.328,Task 4,2024.1.5,None,2024-10-17 13h07.11.929106 +0530,
-50,x,,,,,20,2,82,0,744.9535000000033,,744.945633299998,744.9535000000033,745.9531375999795,745.9531375999795,745.9531375999795,745.9531375999795,745.9531375999795,746.9531298999791,746.9531298999791,747.8928142999939,x,1,0.9365851999900769,None,549741,001,2024-10-17_13h07.06.328,Task 4,2024.1.5,None,2024-10-17 13h07.11.929106 +0530,
-50,x,,,,,20,3,83,0,747.903038599994,,747.8940647999989,747.903038599994,748.9032718999952,748.9032718999952,748.9032718999952,748.9032718999952,748.9032718999952,749.9025160000019,749.9025160000019,750.743657199986,x,1,0.8389377999992575,None,549741,001,2024-10-17_13h07.06.328,Task 4,2024.1.5,None,2024-10-17 13h07.11.929106 +0530,
-150,z,,,,,21,0,84,3,750.7533796999778,,750.7452520999941,750.7533796999778,751.7539392999897,751.7539392999897,751.7539392999897,751.7539392999897,751.7539392999897,752.7527654999867,752.7527654999867,754.0439149999875,z,1,1.2880597000184935,None,549741,001,2024-10-17_13h07.06.328,Task 4,2024.1.5,None,2024-10-17 13h07.11.929106 +0530,
150,v,,,,,21,1,85,1,754.0530918999866,,754.045500999986,754.0530918999866,755.0530399999989,755.0530399999989,755.0530399999989,755.0530399999989,755.0530399999989,756.0526932999783,756.0526932999783,756.6099570999795,v,1,0.5501099999819417,None,549741,001,2024-10-17_13h07.06.328,Task 4,2024.1.5,None,2024-10-17 13h07.11.929106 +0530,
-50,x,,,,,21,2,86,0,756.6194954999955,,756.611315999995,756.6194954999955,757.6196410999983,757.6196410999983,757.6196410999983,757.6196410999983,757.6196410999983,758.6196652999788,758.6196652999788,759.2264056999993,x,1,0.5977126000216231,None,549741,001,2024-10-17_13h07.06.328,Task 4,2024.1.5,None,2024-10-17 13h07.11.929106 +0530,
50,c,,,,,21,3,87,2,759.2361747999967,,759.2278814000019,759.2361747999967,760.235815699998,760.235815699998,760.235815699998,760.235815699998,760.235815699998,761.2351387999952,761.2351387999952,761.9088647000026,c,1,0.6635411999886855,None,549741,001,2024-10-17_13h07.06.328,Task 4,2024.1.5,None,2024-10-17 13h07.11.929106 +0530,
-50,x,,,,,22,0,88,0,761.9190934999788,,761.9104555999802,761.9190934999788,762.9193777999899,762.9193777999899,762.9193777999899,762.9193777999899,762.9193777999899,763.919175899995,763.919175899995,764.4268547999964,x,1,0.499099299981026,None,549741,001,2024-10-17_13h07.06.328,Task 4,2024.1.5,None,2024-10-17 13h07.11.929106 +0530,
150,v,,,,,22,1,89,1,764.4357698999811,,764.4285067000019,764.4357698999811,765.4356537999993,765.4356537999993,765.4356537999993,765.4356537999993,765.4356537999993,766.4352995999798,766.4352995999798,766.9741225999896,v,1,0.5287203000043519,None,549741,001,2024-10-17_13h07.06.328,Task 4,2024.1.5,None,2024-10-17 13h07.11.929106 +0530,
50,c,,,,,22,2,90,2,766.9856597000035,,766.9754985999898,766.9856597000035,767.9856400999997,767.9856400999997,767.9856400999997,767.9856400999997,767.9856400999997,768.9856099000026,768.9856099000026,769.5252876000013,c,1,0.5086936999869067,None,549741,001,2024-10-17_13h07.06.328,Task 4,2024.1.5,None,2024-10-17 13h07.11.929106 +0530,
150,v,,,,,22,3,91,1,769.5362098999904,,769.526948099985,769.5362098999904,770.5355202999781,770.5355202999781,770.5355202999781,770.5355202999781,770.5355202999781,771.5347586999997,771.5347586999997,772.0921101999993,v,1,0.5505123999901116,None,549741,001,2024-10-17_13h07.06.328,Task 4,2024.1.5,None,2024-10-17 13h07.11.929106 +0530,
